L_Scene,R_Scene,Points_L,Points_R,PtTotal,blockFile,Instructions_Loop.thisRepN,Instructions_Loop.thisTrialN,Instructions_Loop.thisN,Instructions_Loop.thisIndex,Redo_Instructions_Loop.thisRepN,Redo_Instructions_Loop.thisTrialN,Redo_Instructions_Loop.thisN,Redo_Instructions_Loop.thisIndex,Practice_Encoding_Loop.thisRepN,Practice_Encoding_Loop.thisTrialN,Practice_Encoding_Loop.thisN,Practice_Encoding_Loop.thisIndex,Practice_Response_Fail_Loop.thisRepN,Practice_Response_Fail_Loop.thisTrialN,Practice_Response_Fail_Loop.thisN,Practice_Response_Fail_Loop.thisIndex,Practice_FB_Loop.thisRepN,Practice_FB_Loop.thisTrialN,Practice_FB_Loop.thisN,Practice_FB_Loop.thisIndex,Practice_Attention_Loop.thisRepN,Practice_Attention_Loop.thisTrialN,Practice_Attention_Loop.thisN,Practice_Attention_Loop.thisIndex,Practice_EncBrk_Loop.thisRepN,Practice_EncBrk_Loop.thisTrialN,Practice_EncBrk_Loop.thisN,Practice_EncBrk_Loop.thisIndex,Encoding_Loop.thisRepN,Encoding_Loop.thisTrialN,Encoding_Loop.thisN,Encoding_Loop.thisIndex,EncStim_Loop.thisRepN,EncStim_Loop.thisTrialN,EncStim_Loop.thisN,EncStim_Loop.thisIndex,Response_Fail_Loop.thisRepN,Response_Fail_Loop.thisTrialN,Response_Fail_Loop.thisN,Response_Fail_Loop.thisIndex,FB_Loop.thisRepN,FB_Loop.thisTrialN,FB_Loop.thisN,FB_Loop.thisIndex,Attention_Loop.thisRepN,Attention_Loop.thisTrialN,Attention_Loop.thisN,Attention_Loop.thisIndex,EncBrk_Loop.thisRepN,EncBrk_Loop.thisTrialN,EncBrk_Loop.thisN,EncBrk_Loop.thisIndex,Transition_Enc.keys,Transition_Enc.rt,Encoding_Resp.started,Encoding_Resp.keys,Encoding_Resp.rt,R_Point_FB_Stim.started,Attn_resp.keys,Attn_resp.rt,Progress_Tracker.started,EncBrk_Resp.keys,EncBrk_Resp.rt,participant,Group,date,expName,psychopyVersion,frameRate,
,,,,,,,,,,,,,,,,,,,,,,,,,,,,,,,,,,,,,,,,,,,,,,,,,,,,,,,,,,space,3.8103971239988823,,,,,,,,,,00004,B,2024-06-20_14h43.49.043,EPIDM,2022.2.5,None,
A060.jpg,F041.jpg,5 Points,5 Points,5 Points,,,,,,,,,,0,0,0,0,,,,,,,,,,,,,,,,,,,,,,,,,,,,,,,,,,,,,,,,,,,48.279285333999724,p,1.2676709580000534,49.66199987500022,,,,,,00004,B,2024-06-20_14h43.49.043,EPIDM,2022.2.5,None,
O161.jpg,1812.jpg,2 Points,2 Points,7 Points,,,,,,,,,,0,1,1,1,,,,,,,,,,,,,,,,,,,,,,,,,,,,,,,,,,,,,,,,,,,53.84288066699992,p,0.1669132079987321,54.132695834000515,,,,,,00004,B,2024-06-20_14h43.49.043,EPIDM,2022.2.5,None,
O013.jpg,A001.jpg,3 Points,3 Points,10 Points,,,,,,,,,,0,2,2,2,,,,,,,,,,,,,,,,,,,,,,,,,,,,,,,,,,,,,,,,,,,58.319815584000025,p,0.4429179579992706,58.91617879200021,,,,,,00004,B,2024-06-20_14h43.49.043,EPIDM,2022.2.5,None,
P036.jpg,F273.jpg,5 Points,5 Points,15 Points,,,,,,,,,,0,3,3,3,,,,,,,,,,,,,,,,,,,,,,,,,,,,,,,,,,,,,,,,,,,63.070155542000066,p,0.3639774999992369,63.57946566700048,,,,,,00004,B,2024-06-20_14h43.49.043,EPIDM,2022.2.5,None,
L130.jpg,2393.jpg,0 Points,0 Points,15 Points,,,,,,,,,,0,4,4,4,,,,,,,,,,,,,,,,,,,,,,,,,,,,,,,,,,,,,,,,,,,67.7254353340004,p,0.3348689579988786,68.1754921669999,0,0.9521292079998602,,,,00004,B,2024-06-20_14h43.49.043,EPIDM,2022.2.5,None,
F279.jpg,P033.jpg,3 Points,3 Points,18 Points,,,,,,,,,,0,5,5,5,,,,,,,,,,,,,,,,,,,,,,,,,,,,,,,,,,,,,,,,,,,73.3909653339997,p,0.2886477499996545,73.82466695899984,,,,,,00004,B,2024-06-20_14h43.49.043,EPIDM,2022.2.5,None,
A104.jpg,2593.jpg,2 Points,2 Points,20 Points,,,,,,,,,,0,6,6,6,,,,,,,,,,,,,,,,,,,,,,,,,,,,,,,,,,,,,,,,,,,77.97083866699995,p,0.058564499999192776,78.13942191699971,,,,,,00004,B,2024-06-20_14h43.49.043,EPIDM,2022.2.5,None,
2598.jpg,2605.jpg,0 Points,0 Points,20 Points,,,,,,,,,,0,7,7,7,,,,,,,,,,,,,,,,,,,,,,,,,,,,,,,,,,,,,,,,,,,82.33701341699998,p,0.3972447079995618,82.8056633340002,,,,,,00004,B,2024-06-20_14h43.49.043,EPIDM,2022.2.5,None,
L005.jpg,O011.jpg,1 Points,1 Points,21 Points,,,,,,,,,,0,8,8,8,,,,,,,,,,,,,,,,,,,,,,,,,,,,,,,,,,,,,,,,,,,87.0467773750006,p,0.07325854199916648,87.23765612500029,,,,,,00004,B,2024-06-20_14h43.49.043,EPIDM,2022.2.5,None,
8186.jpg,F078.jpg,2 Points,2 Points,23 Points,,,,,,,,,,0,9,9,9,,,,,,,,,,,,,,,,,,,,,,,,,,,,,,,,,,,,,,,,,,,91.43108233400017,p,0.06235987399941223,91.60111700000016,2,1.2424577909996515,102.9163801249997,space,2.7520002079991173,00004,B,2024-06-20_14h43.49.043,EPIDM,2022.2.5,None,
,,,,,,,,,,,,,,,,,,,,,,,,,,,,,,,,,,,,,,,,,,,,,,,,,,,,,,,,,,space,2.572469457999432,,,,,,,,,,00004,B,2024-06-20_14h43.49.043,EPIDM,2022.2.5,None,
7284.jpg,8021.jpg,4 Points,4 Points,4 Points,PS2_L1.csv,,,,,,,,,,,,,,,,,,,,,,,,,,,,,0,0,0,0,0,0,0,0,,,,,,,,,,,,,,,,,,,118.86257891700006,p,0.45340679099899717,119.3725864170001,,,,,,00004,B,2024-06-20_14h43.49.043,EPIDM,2022.2.5,None,
2214.jpg,4500.jpg,3 Points,3 Points,7 points,PS2_L1.csv,,,,,,,,,,,,,,,,,,,,,,,,,,,,,0,0,0,0,0,1,1,1,,,,,,,,,,,,,,,,,,,123.613819917,p,0.0065928329995585955,123.67538000000059,3,0.3020830830000705,,,,00004,B,2024-06-20_14h43.49.043,EPIDM,2022.2.5,None,
1280.jpg,9402.jpg,2 Points,2 Points,9 points,PS2_L1.csv,,,,,,,,,,,,,,,,,,,,,,,,,,,,,0,0,0,0,0,2,2,2,,,,,,,,,,,,,,,,,,,128.27444833400023,p,0.00480133299879526,128.31520520899994,,,,,,00004,B,2024-06-20_14h43.49.043,EPIDM,2022.2.5,None,
1650.jpg,2130.jpg,1 Points,1 Points,10 points,PS2_L1.csv,,,,,,,,,,,,,,,,,,,,,,,,,,,,,0,0,0,0,0,3,3,3,,,,,,,,,,,,,,,,,,,132.59092491699994,p,0.08957199999986187,132.72142304200042,,,,,,00004,B,2024-06-20_14h43.49.043,EPIDM,2022.2.5,None,
2221.jpg,2270.jpg,2 Points,2 Points,12 points,PS2_L1.csv,,,,,,,,,,,,,,,,,,,,,,,,,,,,,0,0,0,0,0,4,4,4,,,,,,,,,,,,,,,,,,,136.99893720900036,p,0.05365674999939074,137.09987224999986,,,,,,00004,B,2024-06-20_14h43.49.043,EPIDM,2022.2.5,None,
9373.jpg,9410.jpg,0 Points,0 Points,12 points,PS2_L1.csv,,,,,,,,,,,,,,,,,,,,,,,,,,,,,0,0,0,0,0,5,5,5,,,,,,,,,,,,,,,,,,,141.3575742920002,p,0.20197799999914423,141.60073575000024,,,,,,00004,B,2024-06-20_14h43.49.043,EPIDM,2022.2.5,None,
4250.jpg,7060.jpg,5 Points,5 Points,17 points,PS2_L1.csv,,,,,,,,,,,,,,,,,,,,,,,,,,,,,0,0,0,0,0,6,6,6,,,,,,,,,,,,,,,,,,,145.8659347089997,p,0.27285712499906367,146.19006333400011,,,,,,00004,B,2024-06-20_14h43.49.043,EPIDM,2022.2.5,None,
5130.jpg,1810.jpg,3 Points,3 Points,20 points,PS2_L1.csv,,,,,,,,,,,,,,,,,,,,,,,,,,,,,0,0,0,0,0,7,7,7,,,,,,,,,,,,,,,,,,,150.43703350000033,p,0.3431258329992488,150.8450998340004,,,,,,00004,B,2024-06-20_14h43.49.043,EPIDM,2022.2.5,None,
6370.jpg,1270.jpg,4 Points,4 Points,24 points,PS2_L1.csv,,,,,,,,,,,,,,,,,,,,,,,,,,,,,0,0,0,0,0,8,8,8,,,,,,,,,,,,,,,,,,,155.099524792,p,0.1806597499999043,155.333371834,,,,,,00004,B,2024-06-20_14h43.49.043,EPIDM,2022.2.5,None,
5480.jpg,8200.jpg,4 Points,4 Points,28 points,PS2_L1.csv,,,,,,,,,,,,,,,,,,,,,,,,,,,,,0,0,0,0,0,9,9,9,,,,,,,,,,,,,,,,,,,159.58384600000045,p,0.031226623999828007,159.67220420900048,,,,,,00004,B,2024-06-20_14h43.49.043,EPIDM,2022.2.5,None,
2520.jpg,8503.jpg,2 Points,2 Points,30 points,PS2_L1.csv,,,,,,,,,,,,,,,,,,,,,,,,,,,,,0,0,0,0,0,10,10,10,,,,,,,,,,,,,,,,,,,163.92532762500014,p,0.02091749899864226,163.9910947090002,,,,,,00004,B,2024-06-20_14h43.49.043,EPIDM,2022.2.5,None,
5971.jpg,9912.jpg,5 Points,5 Points,35 points,PS2_L1.csv,,,,,,,,,,,,,,,,,,,,,,,,,,,,,0,0,0,0,0,11,11,11,,,,,,,,,,,,,,,,,,,168.25754183400022,p,0.1912448739985848,168.4910540840001,,,,,,00004,B,2024-06-20_14h43.49.043,EPIDM,2022.2.5,None,
7195.jpg,2487.jpg,2 Points,2 Points,37 points,PS2_L1.csv,,,,,,,,,,,,,,,,,,,,,,,,,,,,,0,0,0,0,0,12,12,12,,,,,,,,,,,,,,,,,,,172.76563145900036,p,0.018630165999638848,172.82546916699994,,,,,,00004,B,2024-06-20_14h43.49.043,EPIDM,2022.2.5,None,
6840.jpg,3080.jpg,1 Points,1 Points,38 points,PS2_L1.csv,,,,,,,,,,,,,,,,,,,,,,,,,,,,,0,0,0,0,0,13,13,13,,,,,,,,,,,,,,,,,,,177.07881345900023,p,0.5231808749995253,177.64247566700033,1,1.1175611249991562,,,,00004,B,2024-06-20_14h43.49.043,EPIDM,2022.2.5,None,
5510.jpg,2514.jpg,5 Points,5 Points,43 points,PS2_L1.csv,,,,,,,,,,,,,,,,,,,,,,,,,,,,,0,0,0,0,0,14,14,14,,,,,,,,,,,,,,,,,,,183.06081666699993,p,0.03461083299953316,183.1397913339997,,,,,,00004,B,2024-06-20_14h43.49.043,EPIDM,2022.2.5,None,
7170.jpg,2170.jpg,2 Points,2 Points,45 points,PS2_L1.csv,,,,,,,,,,,,,,,,,,,,,,,,,,,,,0,0,0,0,0,15,15,15,,,,,,,,,,,,,,,,,,,187.42168262500036,p,0.02209666599992488,187.4894588750003,,,,,,00004,B,2024-06-20_14h43.49.043,EPIDM,2022.2.5,None,
6020.jpg,6300.jpg,2 Points,2 Points,47 points,PS2_L1.csv,,,,,,,,,,,,,,,,,,,,,,,,,,,,,0,0,0,0,0,16,16,16,,,,,,,,,,,,,,,,,,,191.75391829199998,p,0.2541499989993099,192.0444541249999,,,,,,00004,B,2024-06-20_14h43.49.043,EPIDM,2022.2.5,None,
1942.jpg,2890.jpg,1 Points,1 Points,48 points,PS2_L1.csv,,,,,,,,,,,,,,,,,,,,,,,,,,,,,0,0,0,0,0,17,17,17,,,,,,,,,,,,,,,,,,,196.2976777920003,p,0.46885241600011796,196.80325270899993,,,,,,00004,B,2024-06-20_14h43.49.043,EPIDM,2022.2.5,None,
6241.jpg,9561.jpg,3 Points,3 Points,51 points,PS2_L1.csv,,,,,,,,,,,,,,,,,,,,,,,,,,,,,0,0,0,0,0,18,18,18,,,,,,,,,,,,,,,,,,,201.06760195900006,p,0.43683120799960307,201.55767537500014,,,,,,00004,B,2024-06-20_14h43.49.043,EPIDM,2022.2.5,None,
4536.jpg,2280.jpg,4 Points,4 Points,55 points,PS2_L1.csv,,,,,,,,,,,,,,,,,,,,,,,,,,,,,0,0,0,0,0,19,19,19,,,,,,,,,,,,,,,,,,,205.81700524999997,p,0.1432224159989346,206.00458070900004,,,,,,00004,B,2024-06-20_14h43.49.043,EPIDM,2022.2.5,None,
6000.jpg,6836.jpg,4 Points,4 Points,59 points,PS2_L1.csv,,,,,,,,,,,,,,,,,,,,,,,,,,,,,0,0,0,0,0,20,20,20,,,,,,,,,,,,,,,,,,,210.25693737500023,p,0.2511063739993915,210.55250970900033,,,,,,00004,B,2024-06-20_14h43.49.043,EPIDM,2022.2.5,None,
8232.jpg,4279.jpg,5 Points,5 Points,64 points,PS2_L1.csv,,,,,,,,,,,,,,,,,,,,,,,,,,,,,0,0,0,0,0,21,21,21,,,,,,,,,,,,,,,,,,,214.82697162499971,p,0.17285995799920784,215.0575051249998,,,,,,00004,B,2024-06-20_14h43.49.043,EPIDM,2022.2.5,None,
2312.jpg,2722.jpg,1 Points,1 Points,65 points,PS2_L1.csv,,,,,,,,,,,,,,,,,,,,,,,,,,,,,0,0,0,0,0,22,22,22,,,,,,,,,,,,,,,,,,,219.30597812500037,p,0.16972408299989183,219.5180959170002,,,,,,00004,B,2024-06-20_14h43.49.043,EPIDM,2022.2.5,None,
2750.jpg,9050.jpg,4 Points,4 Points,69 points,PS2_L1.csv,,,,,,,,,,,,,,,,,,,,,,,,,,,,,0,0,0,0,0,23,23,23,,,,,,,,,,,,,,,,,,,223.7667722920005,p,0.09608620800008794,223.91759420900053,,,234.27306783400036,space,3.3455076249993,00004,B,2024-06-20_14h43.49.043,EPIDM,2022.2.5,None,
1113.jpg,1240.jpg,3 Points,3 Points,72 points,PS2_L2.csv,,,,,,,,,,,,,,,,,,,,,,,,,,,,,0,1,1,1,0,0,0,0,,,,,,,,,,,,,,,,,,,240.93010758400033,p,1.1115746669993314,242.0962275840002,,,,,,00004,B,2024-06-20_14h43.49.043,EPIDM,2022.2.5,None,
8220.jpg,2410.jpg,4 Points,4 Points,76 points,PS2_L2.csv,,,,,,,,,,,,,,,,,,,,,,,,,,,,,0,1,1,1,0,1,1,1,,,,,,,,,,,,,,,,,,,246.3492093750001,p,0.2606355829993845,246.65429783400032,4,0.31722862500009796,,,,00004,B,2024-06-20_14h43.49.043,EPIDM,2022.2.5,None,
4621.jpg,3550.jpg,2 Points,2 Points,78 points,PS2_L2.csv,,,,,,,,,,,,,,,,,,,,,,,,,,,,,0,1,1,1,0,2,2,2,,,,,,,,,,,,,,,,,,,251.2610683339999,p,0.21091516700016655,251.5072130839999,,,,,,00004,B,2024-06-20_14h43.49.043,EPIDM,2022.2.5,None,
2751.jpg,6313.jpg,3 Points,3 Points,81 points,PS2_L2.csv,,,,,,,,,,,,,,,,,,,,,,,,,,,,,0,1,1,1,0,3,3,3,,,,,,,,,,,,,,,,,,,255.77279683400047,p,0.8847820829996635,256.69856591700045,,,,,,00004,B,2024-06-20_14h43.49.043,EPIDM,2022.2.5,None,
4689.jpg,7009.jpg,5 Points,5 Points,86 points,PS2_L2.csv,,,,,,,,,,,,,,,,,,,,,,,,,,,,,0,1,1,1,0,4,4,4,,,,,,,,,,,,,,,,,,,260.9571320840005,p,0.7037630830000126,261.7087097089998,,,,,,00004,B,2024-06-20_14h43.49.043,EPIDM,2022.2.5,None,
6831.jpg,2141.jpg,5 Points,5 Points,91 points,PS2_L2.csv,,,,,,,,,,,,,,,,,,,,,,,,,,,,,0,1,1,1,0,5,5,5,,,,,,,,,,,,,,,,,,,265.9656279589999,p,0.5053647079994334,266.5084447090003,,,,,,00004,B,2024-06-20_14h43.49.043,EPIDM,2022.2.5,None,
9417.jpg,6530.jpg,1 Point,1 Point,92 points,PS2_L2.csv,,,,,,,,,,,,,,,,,,,,,,,,,,,,,0,1,1,1,0,6,6,6,,,,,,,,,,,,,,,,,,,270.76390554200043,p,0.7763068749991362,271.5846002919998,,,,,,00004,B,2024-06-20_14h43.49.043,EPIDM,2022.2.5,None,
7237.jpg,8510.jpg,4 Points,4 Points,96 points,PS2_L2.csv,,,,,,,,,,,,,,,,,,,,,,,,,,,,,0,1,1,1,0,7,7,7,,,,,,,,,,,,,,,,,,,275.8308844590001,p,0.4067744579988357,276.2832845840003,,,,,,00004,B,2024-06-20_14h43.49.043,EPIDM,2022.2.5,None,
4608.jpg,8320.jpg,1 Point,1 Point,97 points,PS2_L2.csv,,,,,,,,,,,,,,,,,,,,,,,,,,,,,0,1,1,1,0,8,8,8,,,,,,,,,,,,,,,,,,,280.5342067920001,p,0.017527748998872994,280.5930994170003,,,,,,00004,B,2024-06-20_14h43.49.043,EPIDM,2022.2.5,None,
9254.jpg,9290.jpg,2 Points,2 Points,99 points,PS2_L2.csv,,,,,,,,,,,,,,,,,,,,,,,,,,,,,0,1,1,1,0,9,9,9,,,,,,,,,,,,,,,,,,,284.8541839999998,p,0.32574395799929334,285.2261225000002,,,,,,00004,B,2024-06-20_14h43.49.043,EPIDM,2022.2.5,None,
9530.jpg,9220.jpg,1 Point,1 Point,100 points,PS2_L2.csv,,,,,,,,,,,,,,,,,,,,,,,,,,,,,0,1,1,1,0,10,10,10,,,,,,,,,,,,,,,,,,,289.5073188340002,p,0.6969687079990763,290.23434258399993,,,,,,00004,B,2024-06-20_14h43.49.043,EPIDM,2022.2.5,None,
2092.jpg,2210.jpg,0 Points,0 Points,100 points,PS2_L2.csv,,,,,,,,,,,,,,,,,,,,,,,,,,,,,0,1,1,1,0,11,11,11,,,,,,,,,,,,,,,,,,,294.49485570900015,p,0.6653162909997263,295.1977544170004,,,,,,00004,B,2024-06-20_14h43.49.043,EPIDM,2022.2.5,None,
9500.jpg,6360.jpg,1 Point,1 Point,101 points,PS2_L2.csv,,,,,,,,,,,,,,,,,,,,,,,,,,,,,0,1,1,1,0,12,12,12,,,,,,,,,,,,,,,,,,,299.46201999999994,p,0.048149415999432676,299.54651591699985,,,,,,00004,B,2024-06-20_14h43.49.043,EPIDM,2022.2.5,None,
2220.jpg,2010.jpg,5 Points,5 Points,106 points,PS2_L2.csv,,,,,,,,,,,,,,,,,,,,,,,,,,,,,0,1,1,1,0,13,13,13,,,,,,,,,,,,,,,,,,,303.8050773340001,p,0.03740499999912572,303.9007851670003,5,0.3770542909996948,,,,00004,B,2024-06-20_14h43.49.043,EPIDM,2022.2.5,None,
5940.jpg,9411.jpg,0 Points,0 Points,106 points,PS2_L2.csv,,,,,,,,,,,,,,,,,,,,,,,,,,,,,0,1,1,1,0,14,14,14,,,,,,,,,,,,,,,,,,,308.58689825000056,p,0.09513479099950928,308.73585845900016,,,,,,00004,B,2024-06-20_14h43.49.043,EPIDM,2022.2.5,None,
4533.jpg,2385.jpg,3 Points,3 Points,109 points,PS2_L2.csv,,,,,,,,,,,,,,,,,,,,,,,,,,,,,0,1,1,1,0,15,15,15,,,,,,,,,,,,,,,,,,,312.990558167,p,0.04277295799965941,313.0763526669998,,,,,,00004,B,2024-06-20_14h43.49.043,EPIDM,2022.2.5,None,
9340.jpg,6910.jpg,0 Points,0 Points,109 points,PS2_L2.csv,,,,,,,,,,,,,,,,,,,,,,,,,,,,,0,1,1,1,0,16,16,16,,,,,,,,,,,,,,,,,,,317.3368882499999,p,0.006542457998875761,317.39425666700026,,,,,,00004,B,2024-06-20_14h43.49.043,EPIDM,2022.2.5,None,
8350.jpg,7190.jpg,5 Points,5 Points,114 points,PS2_L2.csv,,,,,,,,,,,,,,,,,,,,,,,,,,,,,0,1,1,1,0,17,17,17,,,,,,,,,,,,,,,,,,,321.6547006669998,p,0.0504045829993629,321.75124045899975,,,,,,00004,B,2024-06-20_14h43.49.043,EPIDM,2022.2.5,None,
6211.jpg,9611.jpg,3 Points,3 Points,117 points ,PS2_L2.csv,,,,,,,,,,,,,,,,,,,,,,,,,,,,,0,1,1,1,0,18,18,18,,,,,,,,,,,,,,,,,,,326.0090042090005,p,0.2746411250000165,326.3195405000006,,,,,,00004,B,2024-06-20_14h43.49.043,EPIDM,2022.2.5,None,
2053.jpg,9415.jpg,4 Points,4 Points,121 points,PS2_L2.csv,,,,,,,,,,,,,,,,,,,,,,,,,,,,,0,1,1,1,0,19,19,19,,,,,,,,,,,,,,,,,,,330.57916670899976,p,0.03139445800024987,330.6501570420005,,,,,,00004,B,2024-06-20_14h43.49.043,EPIDM,2022.2.5,None,
2110.jpg,7260.jpg,5 Points,5 Points,126 points,PS2_L2.csv,,,,,,,,,,,,,,,,,,,,,,,,,,,,,0,1,1,1,0,20,20,20,,,,,,,,,,,,,,,,,,,334.91120041700015,p,0.37037866599985136,335.3219533749998,,,,,,00004,B,2024-06-20_14h43.49.043,EPIDM,2022.2.5,None,
2030.jpg,2495.jpg,0 Points,0 Points,126 points,PS2_L2.csv,,,,,,,,,,,,,,,,,,,,,,,,,,,,,0,1,1,1,0,21,21,21,,,,,,,,,,,,,,,,,,,339.58194425000056,p,0.017429707999326638,339.6435767089997,,,,,,00004,B,2024-06-20_14h43.49.043,EPIDM,2022.2.5,None,
1302.jpg,2700.jpg,3 Points,3 Points,129 points,PS2_L2.csv,,,,,,,,,,,,,,,,,,,,,,,,,,,,,0,1,1,1,0,22,22,22,,,,,,,,,,,,,,,,,,,343.90743979200033,p,0.33311829099966417,344.28399354199973,,,,,,00004,B,2024-06-20_14h43.49.043,EPIDM,2022.2.5,None,
9010.jpg,9253.jpg,0 Points,0 Points,129 points,PS2_L2.csv,,,,,,,,,,,,,,,,,,,,,,,,,,,,,0,1,1,1,0,23,23,23,,,,,,,,,,,,,,,,,,,348.5304530000003,p,0.3222006659989347,348.89513883400014,,,359.26654245900045,space,2.51584208299937,00004,B,2024-06-20_14h43.49.043,EPIDM,2022.2.5,None,
1303.jpg,2000.jpg,0 Points,0 Points,129 points,PS2_L3.csv,,,,,,,,,,,,,,,,,,,,,,,,,,,,,0,2,2,2,0,0,0,0,,,,,,,,,,,,,,,,,,,365.081974834,p,1.0340083329992922,366.15539162500045,,,,,,00004,B,2024-06-20_14h43.49.043,EPIDM,2022.2.5,None,
2200.jpg,4598.jpg,1 Point,1 Point,130 points,PS2_L3.csv,,,,,,,,,,,,,,,,,,,,,,,,,,,,,0,2,2,2,0,1,1,1,,,,,,,,,,,,,,,,,,,370.40845462500056,p,0.021594916000140074,370.486727042,1,0.7108062079996671,,,,00004,B,2024-06-20_14h43.49.043,EPIDM,2022.2.5,None,
6190.jpg,3120.jpg,5 Points,5 Points,135 points,PS2_L3.csv,,,,,,,,,,,,,,,,,,,,,,,,,,,,,0,2,2,2,0,2,2,2,,,,,,,,,,,,,,,,,,,375.4828427500006,p,1.1469024990001344,376.6745275000003,,,,,,00004,B,2024-06-20_14h43.49.043,EPIDM,2022.2.5,None,
2570.jpg,5500.jpg,3 Points,3 Points,138 points,PS2_L3.csv,,,,,,,,,,,,,,,,,,,,,,,,,,,,,0,2,2,2,0,3,3,3,,,,,,,,,,,,,,,,,,,380.92715054200016,p,0.0968973740000365,381.066997375,,,,,,00004,B,2024-06-20_14h43.49.043,EPIDM,2022.2.5,None,
8460.jpg,8330.jpg,0 Points,0 Points,138 points,PS2_L3.csv,,,,,,,,,,,,,,,,,,,,,,,,,,,,,0,2,2,2,0,4,4,4,,,,,,,,,,,,,,,,,,,385.32311533400025,p,0.07150204199933796,385.4272087090003,,,,,,00004,B,2024-06-20_14h43.49.043,EPIDM,2022.2.5,None,
9320.jpg,9007.jpg,0 Points,0 Points,138 points,PS2_L3.csv,,,,,,,,,,,,,,,,,,,,,,,,,,,,,0,2,2,2,0,5,5,5,,,,,,,,,,,,,,,,,,,389.6900090420004,p,0.2094559989991467,389.93564700000024,,,,,,00004,B,2024-06-20_14h43.49.043,EPIDM,2022.2.5,None,
2650.jpg,4531.jpg,5 Points,5 Points,143 points,PS2_L3.csv,,,,,,,,,,,,,,,,,,,,,,,,,,,,,0,2,2,2,0,6,6,6,,,,,,,,,,,,,,,,,,,394.19402133400035,p,0.001900373999887961,394.248424417,,,,,,00004,B,2024-06-20_14h43.49.043,EPIDM,2022.2.5,None,
4100.jpg,6570.2.jpg,3 Points,3 Points,146 points,PS2_L3.csv,,,,,,,,,,,,,,,,,,,,,,,,,,,,,0,2,2,2,0,7,7,7,,,,,,,,,,,,,,,,,,,398.4945630840002,p,0.1642374999992171,398.70496545900005,,,,,,00004,B,2024-06-20_14h43.49.043,EPIDM,2022.2.5,None,
3102.jpg,F032.jpg,1 Point,1 Point,147 points,PS2_L3.csv,,,,,,,,,,,,,,,,,,,,,,,,,,,,,0,2,2,2,0,8,8,8,,,,,,,,,,,,,,,,,,,402.96212633400046,p,0.08973854099986056,403.13364075000027,,,,,,00004,B,2024-06-20_14h43.49.043,EPIDM,2022.2.5,None,
2240.jpg,5010.jpg,5 Points,5 Points,152 points,PS2_L3.csv,,,,,,,,,,,,,,,,,,,,,,,,,,,,,0,2,2,2,0,9,9,9,,,,,,,,,,,,,,,,,,,407.3557552500006,p,0.093850874999589,407.49783966700033,,,,,,00004,B,2024-06-20_14h43.49.043,EPIDM,2022.2.5,None,
4605.jpg,1510.jpg,4 Points,4 Points,156 points,PS2_L3.csv,,,,,,,,,,,,,,,,,,,,,,,,,,,,,0,2,2,2,0,10,10,10,,,,,,,,,,,,,,,,,,,411.77288441700057,p,0.025127791998784232,411.84154424999997,,,,,,00004,B,2024-06-20_14h43.49.043,EPIDM,2022.2.5,None,
9490.jpg,9210.jpg,1 Point,1 Point,157 points,PS2_L3.csv,,,,,,,,,,,,,,,,,,,,,,,,,,,,,0,2,2,2,0,11,11,11,,,,,,,,,,,,,,,,,,,416.09671029200035,p,0.17040758299935987,416.3131109169999,,,,,,00004,B,2024-06-20_14h43.49.043,EPIDM,2022.2.5,None,
6821.jpg,9622.jpg,2 Points,2 Points,159 points,PS2_L3.csv,,,,,,,,,,,,,,,,,,,,,,,,,,,,,0,2,2,2,0,12,12,12,,,,,,,,,,,,,,,,,,,420.5872681669998,p,0.46675083299942344,421.082256875,,,,,,00004,B,2024-06-20_14h43.49.043,EPIDM,2022.2.5,None,
2681.jpg,7100.jpg,3 Points,3 Points,162 points,PS2_L3.csv,,,,,,,,,,,,,,,,,,,,,,,,,,,,,0,2,2,2,0,13,13,13,,,,,,,,,,,,,,,,,,,425.34486270900015,p,0.03637649999927817,425.4207037920005,3,1.279282499999681,,,,00004,B,2024-06-20_14h43.49.043,EPIDM,2022.2.5,None,
5622.jpg,9156.jpg,4 Points,4 Points,166 points,PS2_L3.csv,,,,,,,,,,,,,,,,,,,,,,,,,,,,,0,2,2,2,0,14,14,14,,,,,,,,,,,,,,,,,,,431.0191164170001,p,0.020926249999320135,431.0899518750002,,,,,,00004,B,2024-06-20_14h43.49.043,EPIDM,2022.2.5,None,
1111.jpg,1040.jpg,0 Points,0 Points,166 points,PS2_L3.csv,,,,,,,,,,,,,,,,,,,,,,,,,,,,,0,2,2,2,0,15,15,15,,,,,,,,,,,,,,,,,,,435.3326190839998,p,0.04625445799956651,435.4324160840006,,,,,,00004,B,2024-06-20_14h43.49.043,EPIDM,2022.2.5,None,
1112.jpg,6230.jpg,3 Points,3 Points,169 points,PS2_L3.csv,,,,,,,,,,,,,,,,,,,,,,,,,,,,,0,2,2,2,0,16,16,16,,,,,,,,,,,,,,,,,,,439.68984241700036,p,0.020070874999873922,439.7488308339998,,,,,,00004,B,2024-06-20_14h43.49.043,EPIDM,2022.2.5,None,
8161.jpg,1900.jpg,4 Points,4 Points,173 points,PS2_L3.csv,,,,,,,,,,,,,,,,,,,,,,,,,,,,,0,2,2,2,0,17,17,17,,,,,,,,,,,,,,,,,,,444.0145468339997,p,0.36357049999969604,444.42018358400037,,,,,,00004,B,2024-06-20_14h43.49.043,EPIDM,2022.2.5,None,
9800.jpg,9433.jpg,1 Point,1 Point,174 points,PS2_L3.csv,,,,,,,,,,,,,,,,,,,,,,,,,,,,,0,2,2,2,0,18,18,18,,,,,,,,,,,,,,,,,,,448.67744825000045,p,0.11159954100003233,448.8353024170001,,,,,,00004,B,2024-06-20_14h43.49.043,EPIDM,2022.2.5,None,
1390.jpg,9421.jpg,2 Points,2 Points,176 points,PS2_L3.csv,,,,,,,,,,,,,,,,,,,,,,,,,,,,,0,2,2,2,0,19,19,19,,,,,,,,,,,,,,,,,,,453.08737787500013,p,0.26597995799966156,453.3900975000006,,,,,,00004,B,2024-06-20_14h43.49.043,EPIDM,2022.2.5,None,
2850.jpg,4532.jpg,3 Points,3 Points,179 points,PS2_L3.csv,,,,,,,,,,,,,,,,,,,,,,,,,,,,,0,2,2,2,0,20,20,20,,,,,,,,,,,,,,,,,,,457.65708120900035,p,0.5061850829997638,458.2004022500005,,,,,,00004,B,2024-06-20_14h43.49.043,EPIDM,2022.2.5,None,
1560.jpg,8185.jpg,0 Points,0 Points,179 points,PS2_L3.csv,,,,,,,,,,,,,,,,,,,,,,,,,,,,,0,2,2,2,0,21,21,21,,,,,,,,,,,,,,,,,,,462.45749279200027,p,0.08138249999956315,462.5765289589999,,,,,,00004,B,2024-06-20_14h43.49.043,EPIDM,2022.2.5,None,
6314.jpg,O022.jpg,2 Points,2 Points,181 points,PS2_L3.csv,,,,,,,,,,,,,,,,,,,,,,,,,,,,,0,2,2,2,0,22,22,22,,,,,,,,,,,,,,,,,,,466.8406674170001,p,0.061415707999003644,466.96795691700027,,,,,,00004,B,2024-06-20_14h43.49.043,EPIDM,2022.2.5,None,
4274.jpg,8160.jpg,2 Points,2 Points,183 points,PS2_L3.csv,,,,,,,,,,,,,,,,,,,,,,,,,,,,,0,2,2,2,0,23,23,23,,,,,,,,,,,,,,,,,,,471.1991940839998,p,0.06255449999935081,471.30367358400053,,,481.659154209,space,0.8836081659992487,00004,B,2024-06-20_14h43.49.043,EPIDM,2022.2.5,None,
8117.jpg,2880.jpg,5 Points,5 Points,188 points,PS2_L4.csv,,,,,,,,,,,,,,,,,,,,,,,,,,,,,0,3,3,3,0,0,0,0,,,,,,,,,,,,,,,,,,,485.83827283400024,p,0.06305008300023474,485.9494567090005,,,,,,00004,B,2024-06-20_14h43.49.043,EPIDM,2022.2.5,None,
3220.jpg,3063.jpg,5 Points,5 Points,193 points,PS2_L4.csv,,,,,,,,,,,,,,,,,,,,,,,,,,,,,0,3,3,3,0,1,1,1,,,,,,,,,,,,,,,,,,,490.2006366249998,p,0.5257509989996834,490.7647390840002,5,0.3667389159991217,,,,00004,B,2024-06-20_14h43.49.043,EPIDM,2022.2.5,None,
9040.jpg,1120.jpg,3 Points,3 Points,196 points,PS2_L4.csv,,,,,,,,,,,,,,,,,,,,,,,,,,,,,0,3,3,3,0,2,2,2,,,,,,,,,,,,,,,,,,,495.4210899999998,p,0.6833277499999895,496.1462759169999,,,,,,00004,B,2024-06-20_14h43.49.043,EPIDM,2022.2.5,None,
5030.jpg,1670.jpg,3 Points,3 Points,199 points,PS2_L4.csv,,,,,,,,,,,,,,,,,,,,,,,,,,,,,0,3,3,3,0,3,3,3,,,,,,,,,,,,,,,,,,,500.4121353340006,p,0.08489166699928319,500.5310459170005,,,,,,00004,B,2024-06-20_14h43.49.043,EPIDM,2022.2.5,None,
2276.jpg,6540.jpg,3 Points,3 Points,202 points,PS2_L4.csv,,,,,,,,,,,,,,,,,,,,,,,,,,,,,0,3,3,3,0,4,4,4,,,,,,,,,,,,,,,,,,,504.8090219169999,p,0.0063017499987836345,504.8490082090002,,,,,,00004,B,2024-06-20_14h43.49.043,EPIDM,2022.2.5,None,
1540.jpg,2600.jpg,1 Point,1 Point,203 points,PS2_L4.csv,,,,,,,,,,,,,,,,,,,,,,,,,,,,,0,3,3,3,0,5,5,5,,,,,,,,,,,,,,,,,,,509.10787141699984,p,0.07530020799913473,509.22231875000034,,,,,,00004,B,2024-06-20_14h43.49.043,EPIDM,2022.2.5,None,
8465.jpg,8400.jpg,1 Point,1 Point,204 points,PS2_L4.csv,,,,,,,,,,,,,,,,,,,,,,,,,,,,,0,3,3,3,0,6,6,6,,,,,,,,,,,,,,,,,,,513.4772882090001,p,0.11108437499933643,513.621974959,,,,,,00004,B,2024-06-20_14h43.49.043,EPIDM,2022.2.5,None,
3110.jpg,9000.jpg,4 Points,4 Points,208 points,PS2_L4.csv,,,,,,,,,,,,,,,,,,,,,,,,,,,,,0,3,3,3,0,7,7,7,,,,,,,,,,,,,,,,,,,517.8854409169999,p,0.5487370829996507,518.4760671250006,,,,,,00004,B,2024-06-20_14h43.49.043,EPIDM,2022.2.5,None,
9570.jpg,6610.jpg,0 Points,0 Points,208 points,PS2_L4.csv,,,,,,,,,,,,,,,,,,,,,,,,,,,,,0,3,3,3,0,8,8,8,,,,,,,,,,,,,,,,,,,522.7365343749998,p,0.09704445799980022,522.8729202499999,,,,,,00004,B,2024-06-20_14h43.49.043,EPIDM,2022.2.5,None,
2690.jpg,9360.jpg,1 Point,1 Point,209 points,PS2_L4.csv,,,,,,,,,,,,,,,,,,,,,,,,,,,,,0,3,3,3,0,9,9,9,,,,,,,,,,,,,,,,,,,527.1328076250002,p,0.08695441699910589,527.2624014590001,,,,,,00004,B,2024-06-20_14h43.49.043,EPIDM,2022.2.5,None,
8250.jpg,1313.jpg,4 Points,4 Points,213 points,PS2_L4.csv,,,,,,,,,,,,,,,,,,,,,,,,,,,,,0,3,3,3,0,10,10,10,,,,,,,,,,,,,,,,,,,531.5299938340004,p,0.08024549999936426,531.650669959,,,,,,00004,B,2024-06-20_14h43.49.043,EPIDM,2022.2.5,None,
3022.jpg,2352.2.jpg,0 Points,0 Points,213 points,PS2_L4.csv,,,,,,,,,,,,,,,,,,,,,,,,,,,,,0,3,3,3,0,11,11,11,,,,,,,,,,,,,,,,,,,535.9186335000004,p,0.016103249999105174,535.9792807920003,,,,,,00004,B,2024-06-20_14h43.49.043,EPIDM,2022.2.5,None,
9920.jpg,3068.jpg,5 Points,5 Points,218 points,PS2_L4.csv,,,,,,,,,,,,,,,,,,,,,,,,,,,,,0,3,3,3,0,12,12,12,,,,,,,,,,,,,,,,,,,540.2245787500005,p,0.01960158299880277,540.2957271249998,,,,,,00004,B,2024-06-20_14h43.49.043,EPIDM,2022.2.5,None,
7234.jpg,5533.jpg,3 Points,3 Points,221 points,PS2_L4.csv,,,,,,,,,,,,,,,,,,,,,,,,,,,,,0,3,3,3,0,13,13,13,,,,,,,,,,,,,,,,,,,544.556710459,p,0.04781074999937118,544.6403209170003,3,0.861273457999232,,,,00004,B,2024-06-20_14h43.49.043,EPIDM,2022.2.5,None,
6250.1.jpg,3301.jpg,0 Points,0 Points,221 points,PS2_L4.csv,,,,,,,,,,,,,,,,,,,,,,,,,,,,,0,3,3,3,0,14,14,14,,,,,,,,,,,,,,,,,,,549.787122834,p,0.08013508299973182,549.905429292,,,,,,00004,B,2024-06-20_14h43.49.043,EPIDM,2022.2.5,None,
2518.jpg,2381.jpg,1 Point,1 Point,222 points,PS2_L4.csv,,,,,,,,,,,,,,,,,,,,,,,,,,,,,0,3,3,3,0,15,15,15,,,,,,,,,,,,,,,,,,,554.1781996250002,p,0.47609408299922507,554.706753167,,,,,,00004,B,2024-06-20_14h43.49.043,EPIDM,2022.2.5,None,
1910.jpg,2575.jpg,2 Points,2 Points,224 points,PS2_L4.csv,,,,,,,,,,,,,,,,,,,,,,,,,,,,,0,3,3,3,0,16,16,16,,,,,,,,,,,,,,,,,,,558.9655430840003,p,0.14812754099875747,559.1438077499997,,,,,,00004,B,2024-06-20_14h43.49.043,EPIDM,2022.2.5,None,
1275.jpg,3150.jpg,1 Point,1 Point,225 points,PS2_L4.csv,,,,,,,,,,,,,,,,,,,,,,,,,,,,,0,3,3,3,0,17,17,17,,,,,,,,,,,,,,,,,,,563.4108955840002,p,0.08030958299968916,563.5443002920001,,,,,,00004,B,2024-06-20_14h43.49.043,EPIDM,2022.2.5,None,
2702.jpg,1590.jpg,5 Points,5 Points,230 points,PS2_L4.csv,,,,,,,,,,,,,,,,,,,,,,,,,,,,,0,3,3,3,0,18,18,18,,,,,,,,,,,,,,,,,,,567.8137920420004,p,0.5257147079992137,568.3922873339998,,,,,,00004,B,2024-06-20_14h43.49.043,EPIDM,2022.2.5,None,
8480.jpg,6410.jpg,1 Point,1 Point,231 points,PS2_L4.csv,,,,,,,,,,,,,,,,,,,,,,,,,,,,,0,3,3,3,0,19,19,19,,,,,,,,,,,,,,,,,,,572.6477870839999,p,0.12434745799873781,572.8180788340005,,,,,,00004,B,2024-06-20_14h43.49.043,EPIDM,2022.2.5,None,
5621.jpg,5534.jpg,3 Points,3 Points,234 points,PS2_L4.csv,,,,,,,,,,,,,,,,,,,,,,,,,,,,,0,3,3,3,0,20,20,20,,,,,,,,,,,,,,,,,,,577.0650466670004,p,0.2106817489993773,577.3180242919998,,,,,,00004,B,2024-06-20_14h43.49.043,EPIDM,2022.2.5,None,
5972.jpg,6838.jpg,5 Points,5 Points,239 points,PS2_L4.csv,,,,,,,,,,,,,,,,,,,,,,,,,,,,,0,3,3,3,0,21,21,21,,,,,,,,,,,,,,,,,,,581.5864890840003,p,0.09470687499924679,581.7182785840005,,,,,,00004,B,2024-06-20_14h43.49.043,EPIDM,2022.2.5,None,
2580.jpg,8300.jpg,3 Points,3 Points,242 points,PS2_L4.csv,,,,,,,,,,,,,,,,,,,,,,,,,,,,,0,3,3,3,0,22,22,22,,,,,,,,,,,,,,,,,,,585.9791433750006,p,0.303450458000043,586.3359137090001,,,,,,00004,B,2024-06-20_14h43.49.043,EPIDM,2022.2.5,None,
7280.jpg,7160.jpg,0 Points,0 Points,242 points,PS2_L4.csv,,,,,,,,,,,,,,,,,,,,,,,,,,,,,0,3,3,3,0,23,23,23,,,,,,,,,,,,,,,,,,,590.5889907090004,p,0.4567979999992531,591.0966051670002,,,601.4659772920004,space,2.87239820799914,00004,B,2024-06-20_14h43.49.043,EPIDM,2022.2.5,None,
6243.jpg,2752.jpg,2 Points,2 Points,244 points,PS2_L5.csv,,,,,,,,,,,,,,,,,,,,,,,,,,,,,0,4,4,4,0,0,0,0,,,,,,,,,,,,,,,,,,,607.6469618339997,p,0.3041099989995928,607.9931434589998,,,,,,00004,B,2024-06-20_14h43.49.043,EPIDM,2022.2.5,None,
8340.jpg,7546.jpg,2 Points,2 Points,246 points,PS2_L5.csv,,,,,,,,,,,,,,,,,,,,,,,,,,,,,0,4,4,4,0,1,1,1,,,,,,,,,,,,,,,,,,,612.2507481250004,p,0.09453495799971279,612.3801412089997,2,1.8479314169990175,,,,00004,B,2024-06-20_14h43.49.043,EPIDM,2022.2.5,None,
1022.jpg,6930.jpg,1 Point,1 Point,247 points,PS2_L5.csv,,,,,,,,,,,,,,,,,,,,,,,,,,,,,0,4,4,4,0,2,2,2,,,,,,,,,,,,,,,,,,,618.5163337499998,p,0.665838373999577,619.232302292,,,,,,00004,B,2024-06-20_14h43.49.043,EPIDM,2022.2.5,None,
7230.jpg,7570.jpg,5 Points,5 Points,252 points,PS2_L5.csv,,,,,,,,,,,,,,,,,,,,,,,,,,,,,0,4,4,4,0,3,3,3,,,,,,,,,,,,,,,,,,,623.496711834,p,1.0326848739996422,624.5759107089998,,,,,,00004,B,2024-06-20_14h43.49.043,EPIDM,2022.2.5,None,
5760.jpg,1602.jpg,1 Point,1 Point,253 points,PS2_L5.csv,,,,,,,,,,,,,,,,,,,,,,,,,,,,,0,4,4,4,0,4,4,4,,,,,,,,,,,,,,,,,,,628.8317968339998,p,0.8102290419992642,629.6794170000003,,,,,,00004,B,2024-06-20_14h43.49.043,EPIDM,2022.2.5,None,
9584.jpg,3400.jpg,2 Points,2 Points,255 points,PS2_L5.csv,,,,,,,,,,,,,,,,,,,,,,,,,,,,,0,4,4,4,0,5,5,5,,,,,,,,,,,,,,,,,,,633.93866325,p,0.9334251249993031,634.9185620839999,,,,,,00004,B,2024-06-20_14h43.49.043,EPIDM,2022.2.5,None,
2560.jpg,5270.jpg,4 Points,4 Points,259 points,PS2_L5.csv,,,,,,,,,,,,,,,,,,,,,,,,,,,,,0,4,4,4,0,6,6,6,,,,,,,,,,,,,,,,,,,639.1844786669999,p,0.29249045799952,639.5245395840002,,,,,,00004,B,2024-06-20_14h43.49.043,EPIDM,2022.2.5,None,
3350.jpg,3210.jpg,1 Point,1 Point,260 points,PS2_L5.csv,,,,,,,,,,,,,,,,,,,,,,,,,,,,,0,4,4,4,0,7,7,7,,,,,,,,,,,,,,,,,,,643.7810727920005,p,0.27620133299933514,644.0908551250004,,,,,,00004,B,2024-06-20_14h43.49.043,EPIDM,2022.2.5,None,
5455.jpg,5220.jpg,0 Points,0 Points,260 points,PS2_L5.csv,,,,,,,,,,,,,,,,,,,,,,,,,,,,,0,4,4,4,0,8,8,8,,,,,,,,,,,,,,,,,,,648.3633333750004,p,0.3703844579995348,648.767704459,,,,,,00004,B,2024-06-20_14h43.49.043,EPIDM,2022.2.5,None,
7920.jpg,9102.jpg,3 Points,3 Points,263 points,PS2_L5.csv,,,,,,,,,,,,,,,,,,,,,,,,,,,,,0,4,4,4,0,9,9,9,,,,,,,,,,,,,,,,,,,653.0427523340004,p,0.08283279199986282,653.1711537500005,,,,,,00004,B,2024-06-20_14h43.49.043,EPIDM,2022.2.5,None,
1301.jpg,1070.jpg,2 Points,2 Points,265 points,PS2_L5.csv,,,,,,,,,,,,,,,,,,,,,,,,,,,,,0,4,4,4,0,10,10,10,,,,,,,,,,,,,,,,,,,657.4362170000004,p,0.4681072499997754,657.9475251670001,,,,,,00004,B,2024-06-20_14h43.49.043,EPIDM,2022.2.5,None,
5982.jpg,5260.jpg,5 Points,5 Points,270 points,PS2_L5.csv,,,,,,,,,,,,,,,,,,,,,,,,,,,,,0,4,4,4,0,11,11,11,,,,,,,,,,,,,,,,,,,662.1989847499999,p,0.003929332999177859,662.2513287920001,,,,,,00004,B,2024-06-20_14h43.49.043,EPIDM,2022.2.5,None,
5000.jpg,8180.jpg,4 Points,4 Points,274 points,PS2_L5.csv,,,,,,,,,,,,,,,,,,,,,,,,,,,,,0,4,4,4,0,12,12,12,,,,,,,,,,,,,,,,,,,666.50421775,p,0.5120293749996563,667.0591952499999,,,,,,00004,B,2024-06-20_14h43.49.043,EPIDM,2022.2.5,None,
6244.jpg,9265.jpg,0 Points,0 Points,274 points,PS2_L5.csv,,,,,,,,,,,,,,,,,,,,,,,,,,,,,0,4,4,4,0,13,13,13,,,,,,,,,,,,,,,,,,,671.3091050419998,p,0.07839937399967312,671.4305584169997,0,0.314348290999078,,,,00004,B,2024-06-20_14h43.49.043,EPIDM,2022.2.5,None,
5990.jpg,5780.jpg,3 Points,3 Points,277 points,PS2_L5.csv,,,,,,,,,,,,,,,,,,,,,,,,,,,,,0,4,4,4,0,14,14,14,,,,,,,,,,,,,,,,,,,676.0178770419998,p,0.21971691599992482,676.2870200420002,,,,,,00004,B,2024-06-20_14h43.49.043,EPIDM,2022.2.5,None,
9440.jpg,6350.jpg,4 Points,4 Points,281 points,PS2_L5.csv,,,,,,,,,,,,,,,,,,,,,,,,,,,,,0,4,4,4,0,15,15,15,,,,,,,,,,,,,,,,,,,680.5601403749997,p,0.18238737499905255,680.787965167,,,,,,00004,B,2024-06-20_14h43.49.043,EPIDM,2022.2.5,None,
1850.jpg,5623.jpg,5 Points,5 Points,286 points,PS2_L5.csv,,,,,,,,,,,,,,,,,,,,,,,,,,,,,0,4,4,4,0,16,16,16,,,,,,,,,,,,,,,,,,,685.0398783340006,p,0.5078390419994321,685.5877635839997,,,,,,00004,B,2024-06-20_14h43.49.043,EPIDM,2022.2.5,None,
5200.jpg,5020.jpg,0 Points,0 Points,286 points,PS2_L5.csv,,,,,,,,,,,,,,,,,,,,,,,,,,,,,0,4,4,4,0,17,17,17,,,,,,,,,,,,,,,,,,,689.8390170000002,p,0.2918524989991056,690.1781660839997,,,,,,00004,B,2024-06-20_14h43.49.043,EPIDM,2022.2.5,None,
P211.jpg,9041.jpg,4 Points,4 Points,290 points,PS2_L5.csv,,,,,,,,,,,,,,,,,,,,,,,,,,,,,0,4,4,4,0,18,18,18,,,,,,,,,,,,,,,,,,,694.4334243339999,p,0.29475962499964226,694.8042622089997,,,,,,00004,B,2024-06-20_14h43.49.043,EPIDM,2022.2.5,None,
5600.jpg,9080.jpg,5 Points,5 Points,295 points,PS2_L5.csv,,,,,,,,,,,,,,,,,,,,,,,,,,,,,0,4,4,4,0,19,19,19,,,,,,,,,,,,,,,,,,,699.0194340420003,p,0.42501879099927464,699.5271283749998,,,,,,00004,B,2024-06-20_14h43.49.043,EPIDM,2022.2.5,None,
6800.jpg,9190.jpg,0 Points,0 Points,295 points,PS2_L5.csv,,,,,,,,,,,,,,,,,,,,,,,,,,,,,0,4,4,4,0,20,20,20,,,,,,,,,,,,,,,,,,,703.7416218340004,p,0.24937691599916434,704.0304483340005,,,,,,00004,B,2024-06-20_14h43.49.043,EPIDM,2022.2.5,None,
3280.jpg,9270.jpg,0 Points,0 Points,295 points,PS2_L5.csv,,,,,,,,,,,,,,,,,,,,,,,,,,,,,0,4,4,4,0,21,21,21,,,,,,,,,,,,,,,,,,,708.2903337919997,p,0.05636820799918496,708.3856904590002,,,,,,00004,B,2024-06-20_14h43.49.043,EPIDM,2022.2.5,None,
4613.jpg,2720.jpg,4 Points,4 Points,299 points,PS2_L5.csv,,,,,,,,,,,,,,,,,,,,,,,,,,,,,0,4,4,4,0,22,22,22,,,,,,,,,,,,,,,,,,,712.6557065420002,p,0.345639874999506,713.0515176250001,,,,,,00004,B,2024-06-20_14h43.49.043,EPIDM,2022.2.5,None,
1930.jpg,9008.jpg,1 Point,1 Point,300 points,PS2_L5.csv,,,,,,,,,,,,,,,,,,,,,,,,,,,,,0,4,4,4,0,23,23,23,,,,,,,,,,,,,,,,,,,717.3060459170001,p,0.2891073749997304,717.6421650000002,,,727.9861230420001,space,2.5991148329994758,00004,B,2024-06-20_14h43.49.043,EPIDM,2022.2.5,None,
2190.jpg,7503.jpg,2 Points,2 Points,302 points,PS2_L6.csv,,,,,,,,,,,,,,,,,,,,,,,,,,,,,0,5,5,5,0,0,0,0,,,,,,,,,,,,,,,,,,,733.8892403340005,p,0.41009574999952747,734.3424072090002,,,,,,00004,B,2024-06-20_14h43.49.043,EPIDM,2022.2.5,None,
2490.jpg,2590.jpg,4 Points,4 Points,306 points,PS2_L6.csv,,,,,,,,,,,,,,,,,,,,,,,,,,,,,0,5,5,5,0,1,1,1,,,,,,,,,,,,,,,,,,,738.6012987499998,p,0.22208041599969874,738.8719653750004,4,0.4606197909997718,,,,00004,B,2024-06-20_14h43.49.043,EPIDM,2022.2.5,None,
9592.jpg,1300.jpg,2 Points,2 Points,308 points,PS2_L6.csv,,,,,,,,,,,,,,,,,,,,,,,,,,,,,0,5,5,5,0,2,2,2,,,,,,,,,,,,,,,,,,,743.6272305419998,p,0.17532629200013616,743.8359137919997,,,,,,00004,B,2024-06-20_14h43.49.043,EPIDM,2022.2.5,None,
8230.jpg,2682.jpg,5 Points,5 Points,313 points,PS2_L6.csv,,,,,,,,,,,,,,,,,,,,,,,,,,,,,0,5,5,5,0,3,3,3,,,,,,,,,,,,,,,,,,,748.1030340839998,p,0.8083089989995642,748.9487809170005,,,,,,00004,B,2024-06-20_14h43.49.043,EPIDM,2022.2.5,None,
9090.jpg,7580.jpg,3 Points,3 Points,316 points,PS2_L6.csv,,,,,,,,,,,,,,,,,,,,,,,,,,,,,0,5,5,5,0,4,4,4,,,,,,,,,,,,,,,,,,,753.2031776670001,p,0.715233249999983,753.9606469999999,,,,,,00004,B,2024-06-20_14h43.49.043,EPIDM,2022.2.5,None,
3530.jpg,6213.jpg,1 Point,1 Point,317 points,PS2_L6.csv,,,,,,,,,,,,,,,,,,,,,,,,,,,,,0,5,5,5,0,5,5,5,,,,,,,,,,,,,,,,,,,758.2136606670001,p,0.23865358299917716,758.4998459999997,,,,,,00004,B,2024-06-20_14h43.49.043,EPIDM,2022.2.5,None,
1640.jpg,5531.jpg,3 Points,3 Points,320 points,PS2_L6.csv,,,,,,,,,,,,,,,,,,,,,,,,,,,,,0,5,5,5,0,6,6,6,,,,,,,,,,,,,,,,,,,762.7476864999999,p,0.1404335409988562,762.9315862089998,,,,,,00004,B,2024-06-20_14h43.49.043,EPIDM,2022.2.5,None,
3064.jpg,3168.jpg,4 Points,4 Points,324 points,PS2_L6.csv,,,,,,,,,,,,,,,,,,,,,,,,,,,,,0,5,5,5,0,7,7,7,,,,,,,,,,,,,,,,,,,767.1862455840001,p,0.4280837910000628,767.6617267090005,,,,,,00004,B,2024-06-20_14h43.49.043,EPIDM,2022.2.5,None,
2710.jpg,9252.jpg,1 Point,1 Point,325 points,PS2_L6.csv,,,,,,,,,,,,,,,,,,,,,,,,,,,,,0,5,5,5,0,8,8,8,,,,,,,,,,,,,,,,,,,771.9259520420001,p,0.7125078749995737,772.6873052090004,,,,,,00004,B,2024-06-20_14h43.49.043,EPIDM,2022.2.5,None,
2260.jpg,2830.jpg,5 Points,5 Points,330 points,PS2_L6.csv,,,,,,,,,,,,,,,,,,,,,,,,,,,,,0,5,5,5,0,9,9,9,,,,,,,,,,,,,,,,,,,776.9402951250004,p,0.9357340409987955,777.9174224999997,,,,,,00004,B,2024-06-20_14h43.49.043,EPIDM,2022.2.5,None,
6510.jpg,A074.jpg,2 Points,2 Points,332 points,PS2_L6.csv,,,,,,,,,,,,,,,,,,,,,,,,,,,,,0,5,5,5,0,10,10,10,,,,,,,,,,,,,,,,,,,782.181842209,p,0.3659472499994081,782.6329466249999,,,,,,00004,B,2024-06-20_14h43.49.043,EPIDM,2022.2.5,None,
5300.jpg,2372.jpg,1 Point,1 Point,333 points,PS2_L6.csv,,,,,,,,,,,,,,,,,,,,,,,,,,,,,0,5,5,5,0,11,11,11,,,,,,,,,,,,,,,,,,,786.8476916250002,p,0.04478991599899018,786.932977292,,,,,,00004,B,2024-06-20_14h43.49.043,EPIDM,2022.2.5,None,
2749.jpg,7282.jpg,3 Points,3 Points,336 points,PS2_L6.csv,,,,,,,,,,,,,,,,,,,,,,,,,,,,,0,5,5,5,0,12,12,12,,,,,,,,,,,,,,,,,,,791.1942046250006,p,0.1420259159995112,791.3844737090003,,,,,,00004,B,2024-06-20_14h43.49.043,EPIDM,2022.2.5,None,
3130.jpg,3500.jpg,4 Points,4 Points,340 points,PS2_L6.csv,,,,,,,,,,,,,,,,,,,,,,,,,,,,,0,5,5,5,0,13,13,13,,,,,,,,,,,,,,,,,,,795.6365916249997,p,0.07418316599887476,795.7504821250004,4,1.0513491249994331,,,,00004,B,2024-06-20_14h43.49.043,EPIDM,2022.2.5,None,
6312.jpg,3230.jpg,2 Points,2 Points,342 points,PS2_L6.csv,,,,,,,,,,,,,,,,,,,,,,,,,,,,,0,5,5,5,0,14,14,14,,,,,,,,,,,,,,,,,,,801.0976727500001,p,0.14602833299977647,801.299754959,,,,,,00004,B,2024-06-20_14h43.49.043,EPIDM,2022.2.5,None,
2597.jpg,5870.jpg,5 Points,5 Points,347 points,PS2_L6.csv,,,,,,,,,,,,,,,,,,,,,,,,,,,,,0,5,5,5,0,15,15,15,,,,,,,,,,,,,,,,,,,805.553148125,p,0.05704133299877867,805.6568423750005,,,,,,00004,B,2024-06-20_14h43.49.043,EPIDM,2022.2.5,None,
8033.jpg,7270.jpg,3 Points,3 Points,350 points,PS2_L6.csv,,,,,,,,,,,,,,,,,,,,,,,,,,,,,0,5,5,5,0,16,16,16,,,,,,,,,,,,,,,,,,,809.9297930000002,p,0.021420123998723284,809.9878986250005,,,,,,00004,B,2024-06-20_14h43.49.043,EPIDM,2022.2.5,None,
3170.jpg,6560.jpg,2 Points,2 Points,352 points,PS2_L6.csv,,,,,,,,,,,,,,,,,,,,,,,,,,,,,0,5,5,5,0,17,17,17,,,,,,,,,,,,,,,,,,,814.2431900420006,p,0.09930187499958265,814.3707092920004,,,,,,00004,B,2024-06-20_14h43.49.043,EPIDM,2022.2.5,None,
6242.jpg,F034.jpg,4 Points,4 Points,356 points,PS2_L6.csv,,,,,,,,,,,,,,,,,,,,,,,,,,,,,0,5,5,5,0,18,18,18,,,,,,,,,,,,,,,,,,,818.6394138750002,p,0.023475248999602627,818.7331821670005,,,,,,00004,B,2024-06-20_14h43.49.043,EPIDM,2022.2.5,None,
2485.jpg,7350.jpg,0 Points,0 Points,356 points,PS2_L6.csv,,,,,,,,,,,,,,,,,,,,,,,,,,,,,0,5,5,5,0,19,19,19,,,,,,,,,,,,,,,,,,,822.9724470840001,p,0.38440829099909024,823.4072094590001,,,,,,00004,B,2024-06-20_14h43.49.043,EPIDM,2022.2.5,None,
2900.jpg,1101.jpg,3 Points,3 Points,359 points,PS2_L6.csv,,,,,,,,,,,,,,,,,,,,,,,,,,,,,0,5,5,5,0,20,20,20,,,,,,,,,,,,,,,,,,,827.6674813340005,p,0.36177424999914365,828.0708708749999,,,,,,00004,B,2024-06-20_14h43.49.043,EPIDM,2022.2.5,None,
7002.jpg,4660.jpg,4 Points,4 Points,363 points,PS2_L6.csv,,,,,,,,,,,,,,,,,,,,,,,,,,,,,0,5,5,5,0,21,21,21,,,,,,,,,,,,,,,,,,,832.3229414590005,p,0.23377045799952612,832.601543625,,,,,,00004,B,2024-06-20_14h43.49.043,EPIDM,2022.2.5,None,
A025.jpg,1051.jpg,0 Points,0 Points,363 points,PS2_L6.csv,,,,,,,,,,,,,,,,,,,,,,,,,,,,,0,5,5,5,0,22,22,22,,,,,,,,,,,,,,,,,,,836.8542356670005,p,0.36967416599964054,837.3076870840005,,,,,,00004,B,2024-06-20_14h43.49.043,EPIDM,2022.2.5,None,
4510.jpg,2230.jpg,5 Points,5 Points,368 points,PS2_L6.csv,,,,,,,,,,,,,,,,,,,,,,,,,,,,,0,5,5,5,0,23,23,23,,,,,,,,,,,,,,,,,,,841.530449459,p,0.09381337499962683,841.7146025840002,,,852.0621447499998,space,0.6780930830000216,00004,B,2024-06-20_14h43.49.043,EPIDM,2022.2.5,None,
2383.jpg,1616.jpg,2 Points,2 Points,370 points,PS2_L7.csv,,,,,,,,,,,,,,,,,,,,,,,,,,,,,0,6,6,6,0,0,0,0,,,,,,,,,,,,,,,,,,,856.0438497920004,p,0.48234354199939844,856.5758619590006,,,,,,00004,B,2024-06-20_14h43.49.043,EPIDM,2022.2.5,None,
1310.jpg,3181.jpg,4 Points,4 Points,374 points,PS2_L7.csv,,,,,,,,,,,,,,,,,,,,,,,,,,,,,0,6,6,6,0,1,1,1,,,,,,,,,,,,,,,,,,,860.832272875,p,0.18887654099944484,861.0543753749998,2,1.9630671239992807,,,,00004,B,2024-06-20_14h43.49.043,EPIDM,2022.2.5,None,
7289.jpg,4534.jpg,0 Points,0 Points,374 points,PS2_L7.csv,,,,,,,,,,,,,,,,,,,,,,,,,,,,,0,6,6,6,0,2,2,2,,,,,,,,,,,,,,,,,,,867.3073513340005,p,0.7297171659993182,868.0800811250001,,,,,,00004,B,2024-06-20_14h43.49.043,EPIDM,2022.2.5,None,
6010.jpg,7361.jpg,2 Points,2 Points,376 points,PS2_L7.csv,,,,,,,,,,,,,,,,,,,,,,,,,,,,,0,6,6,6,0,3,3,3,,,,,,,,,,,,,,,,,,,872.3291103339998,p,0.07227916599913442,872.4524832500001,,,,,,00004,B,2024-06-20_14h43.49.043,EPIDM,2022.2.5,None,
2661.jpg,2870.jpg,5 Points,5 Points,381 points,PS2_L7.csv,,,,,,,,,,,,,,,,,,,,,,,,,,,,,0,6,6,6,0,4,4,4,,,,,,,,,,,,,,,,,,,876.7171287500005,p,0.33065454099869385,877.0854428749999,,,,,,00004,B,2024-06-20_14h43.49.043,EPIDM,2022.2.5,None,
7220.jpg,8090.jpg,2 Points,2 Points,383 points,PS2_L7.csv,,,,,,,,,,,,,,,,,,,,,,,,,,,,,0,6,6,6,0,5,5,5,,,,,,,,,,,,,,,,,,,881.3622422090002,p,0.08866804099943693,881.4851404589999,,,,,,00004,B,2024-06-20_14h43.49.043,EPIDM,2022.2.5,None,
9140.jpg,2810.jpg,3 Points,3 Points,386 points,PS2_L7.csv,,,,,,,,,,,,,,,,,,,,,,,,,,,,,0,6,6,6,0,6,6,6,,,,,,,,,,,,,,,,,,,885.7544388340002,p,0.007488415999432618,885.8043664590004,,,,,,00004,B,2024-06-20_14h43.49.043,EPIDM,2022.2.5,None,
2516.jpg,8500.jpg,4 Points,4 Points,390 points,PS2_L7.csv,,,,,,,,,,,,,,,,,,,,,,,,,,,,,0,6,6,6,0,7,7,7,,,,,,,,,,,,,,,,,,,890.0676914169999,p,0.3797150419995887,890.5011284170005,,,,,,00004,B,2024-06-20_14h43.49.043,EPIDM,2022.2.5,None,
9070.jpg,9420.jpg,2 Points,2 Points,392 points,PS2_L7.csv,,,,,,,,,,,,,,,,,,,,,,,,,,,,,0,6,6,6,0,8,8,8,,,,,,,,,,,,,,,,,,,894.7649467500005,p,0.07378999999946245,894.8942997499998,,,,,,00004,B,2024-06-20_14h43.49.043,EPIDM,2022.2.5,None,
6561.jpg,1525.jpg,2 Points,2 Points,394 points,PS2_L7.csv,,,,,,,,,,,,,,,,,,,,,,,,,,,,,0,6,6,6,0,9,9,9,,,,,,,,,,,,,,,,,,,899.1444881670004,p,0.36274616599894216,899.5460002090003,,,,,,00004,B,2024-06-20_14h43.49.043,EPIDM,2022.2.5,None,
7175.jpg,7490.jpg,2 Points,2 Points,396 points,PS2_L7.csv,,,,,,,,,,,,,,,,,,,,,,,,,,,,,0,6,6,6,0,10,10,10,,,,,,,,,,,,,,,,,,,903.8297008750005,p,0.040943582999716455,903.9094199589999,,,,,,00004,B,2024-06-20_14h43.49.043,EPIDM,2022.2.5,None,
8010.jpg,2630.jpg,0 Points,0 Points,396 points,PS2_L7.csv,,,,,,,,,,,,,,,,,,,,,,,,,,,,,0,6,6,6,0,11,11,11,,,,,,,,,,,,,,,,,,,908.170383959,p,0.005430707999948936,908.2194790840003,,,,,,00004,B,2024-06-20_14h43.49.043,EPIDM,2022.2.5,None,
F174.jpg,9404.jpg,5 Points,5 Points,401 points,PS2_L7.csv,,,,,,,,,,,,,,,,,,,,,,,,,,,,,0,6,6,6,0,12,12,12,,,,,,,,,,,,,,,,,,,912.4764394169997,p,0.039454165999813995,912.5912236670001,,,,,,00004,B,2024-06-20_14h43.49.043,EPIDM,2022.2.5,None,
2692.jpg,8231.jpg,4 Points,4 Points,405 points,PS2_L7.csv,,,,,,,,,,,,,,,,,,,,,,,,,,,,,0,6,6,6,0,13,13,13,,,,,,,,,,,,,,,,,,,916.8140114170001,p,0.17156795800019609,917.0561600000001,4,1.564258874999723,,,,00004,B,2024-06-20_14h43.49.043,EPIDM,2022.2.5,None,
5994.jpg,5390.jpg,0 Points,0 Points,405 points,PS2_L7.csv,,,,,,,,,,,,,,,,,,,,,,,,,,,,,0,6,6,6,0,14,14,14,,,,,,,,,,,,,,,,,,,922.8757526250001,p,0.24614199999905395,923.161589542,,,,,,00004,B,2024-06-20_14h43.49.043,EPIDM,2022.2.5,None,
9560.jpg,3071.jpg,1 Point,1 Point,406 points,PS2_L7.csv,,,,,,,,,,,,,,,,,,,,,,,,,,,,,0,6,6,6,0,15,15,15,,,,,,,,,,,,,,,,,,,927.4252397090004,p,0.5268209579999166,927.98972925,,,,,,00004,B,2024-06-20_14h43.49.043,EPIDM,2022.2.5,None,
9330.jpg,3015.jpg,5 Points,5 Points,411 points,PS2_L7.csv,,,,,,,,,,,,,,,,,,,,,,,,,,,,,0,6,6,6,0,16,16,16,,,,,,,,,,,,,,,,,,,932.2514923340004,p,0.5345817079996777,932.8239471249999,,,,,,00004,B,2024-06-20_14h43.49.043,EPIDM,2022.2.5,None,
2389.jpg,7320.jpg,0 Points,0 Points,411 points,PS2_L7.csv,,,,,,,,,,,,,,,,,,,,,,,,,,,,,0,6,6,6,0,17,17,17,,,,,,,,,,,,,,,,,,,937.0964719170006,p,0.07136895799976628,937.225540292,,,,,,00004,B,2024-06-20_14h43.49.043,EPIDM,2022.2.5,None,
6570.1.jpg,9432.jpg,5 Points,5 Points,416 points,PS2_L7.csv,,,,,,,,,,,,,,,,,,,,,,,,,,,,,0,6,6,6,0,18,18,18,,,,,,,,,,,,,,,,,,,941.4760852919999,p,0.24121570799889014,941.7678084589998,,,,,,00004,B,2024-06-20_14h43.49.043,EPIDM,2022.2.5,None,
9452.jpg,7184.jpg,4 Points,4 Points,420 points,PS2_L7.csv,,,,,,,,,,,,,,,,,,,,,,,,,,,,,0,6,6,6,0,19,19,19,,,,,,,,,,,,,,,,,,,946.0461115420003,p,0.08714574999885372,946.1781744589998,,,,,,00004,B,2024-06-20_14h43.49.043,EPIDM,2022.2.5,None,
5120.jpg,5520.jpg,2 Points,2 Points,422 points,PS2_L7.csv,,,,,,,,,,,,,,,,,,,,,,,,,,,,,0,6,6,6,0,20,20,20,,,,,,,,,,,,,,,,,,,950.4387204590003,p,0.11484883299908688,950.6055960840004,,,,,,00004,B,2024-06-20_14h43.49.043,EPIDM,2022.2.5,None,
5970.jpg,3300.jpg,0 Points,0 Points,422 points,PS2_L7.csv,,,,,,,,,,,,,,,,,,,,,,,,,,,,,0,6,6,6,0,21,21,21,,,,,,,,,,,,,,,,,,,954.8587722920001,p,0.10378720799963048,955.0048429999997,,,,,,00004,B,2024-06-20_14h43.49.043,EPIDM,2022.2.5,None,
7620.jpg,5395.jpg,1 Point,1 Point,423 points,PS2_L7.csv,,,,,,,,,,,,,,,,,,,,,,,,,,,,,0,6,6,6,0,22,22,22,,,,,,,,,,,,,,,,,,,959.2635449589998,p,0.019480374999147898,959.3189710420002,,,,,,00004,B,2024-06-20_14h43.49.043,EPIDM,2022.2.5,None,
P019.jpg,F158.jpg,3 Points,3 Points,426 points,PS2_L7.csv,,,,,,,,,,,,,,,,,,,,,,,,,,,,,0,6,6,6,0,23,23,23,,,,,,,,,,,,,,,,,,,963.5794749590004,p,0.09005704099945433,963.7722213750003,,,974.0631361670003,space,0.9456849159996636,00004,B,2024-06-20_14h43.49.043,EPIDM,2022.2.5,None,
2620.jpg,2594.jpg,0 Points,0 Points,426 points,PS2_L8.csv,,,,,,,,,,,,,,,,,,,,,,,,,,,,,0,7,7,7,0,0,0,0,,,,,,,,,,,,,,,,,,,978.3135418749998,p,1.2063698739993924,979.594269792,,,,,,00004,B,2024-06-20_14h43.49.043,EPIDM,2022.2.5,None,
F369.jpg,3100.jpg,2 Points,2 Points,428 points,PS2_L8.csv,,,,,,,,,,,,,,,,,,,,,,,,,,,,,0,7,7,7,0,1,1,1,,,,,,,,,,,,,,,,,,,983.8310255840006,p,0.045810540999809746,983.9363192090004,2,0.784684291999838,,,,00004,B,2024-06-20_14h43.49.043,EPIDM,2022.2.5,None,
1052.jpg,1201.jpg,3 Points,3 Points,431 points,PS2_L8.csv,,,,,,,,,,,,,,,,,,,,,,,,,,,,,0,7,7,7,0,2,2,2,,,,,,,,,,,,,,,,,,,989.0228978340001,p,0.33464804199957143,989.4360702920003,,,,,,00004,B,2024-06-20_14h43.49.043,EPIDM,2022.2.5,None,
2606.jpg,2480.jpg,1 Point,1 Point,432 points,PS2_L8.csv,,,,,,,,,,,,,,,,,,,,,,,,,,,,,0,7,7,7,0,3,3,3,,,,,,,,,,,,,,,,,,,993.6645357500001,p,0.03212779099976615,993.7379830420005,,,,,,00004,B,2024-06-20_14h43.49.043,EPIDM,2022.2.5,None,
9594.jpg,1080.jpg,4 Points,4 Points,436 points,PS2_L8.csv,,,,,,,,,,,,,,,,,,,,,,,,,,,,,0,7,7,7,0,4,4,4,,,,,,,,,,,,,,,,,,,997.9962490839998,p,0.0076293329993859516,998.0537753750004,,,,,,00004,B,2024-06-20_14h43.49.043,EPIDM,2022.2.5,None,
4770.jpg,4275.jpg,3 Points,3 Points,439 points,PS2_L8.csv,,,,,,,,,,,,,,,,,,,,,,,,,,,,,0,7,7,7,0,5,5,5,,,,,,,,,,,,,,,,,,,1002.3204775840004,p,0.0017644579993429943,1002.3692088340003,,,,,,00004,B,2024-06-20_14h43.49.043,EPIDM,2022.2.5,None,
P077.jpg,A041.jpg,1 Point,1 Point,440 points,PS2_L8.csv,,,,,,,,,,,,,,,,,,,,,,,,,,,,,0,7,7,7,0,6,6,6,,,,,,,,,,,,,,,,,,,1006.6169595000001,p,0.21189741699981823,1006.9402430420005,,,,,,00004,B,2024-06-20_14h43.49.043,EPIDM,2022.2.5,None,
6550.jpg,9582.jpg,5 Points,5 Points,445 points,PS2_L8.csv,,,,,,,,,,,,,,,,,,,,,,,,,,,,,0,7,7,7,0,7,7,7,,,,,,,,,,,,,,,,,,,1011.1208717090003,p,0.030710665999322373,1011.2323354999999,,,,,,00004,B,2024-06-20_14h43.49.043,EPIDM,2022.2.5,None,
8040.jpg,7185.jpg,1 Point,1 Point,446 points,PS2_L8.csv,,,,,,,,,,,,,,,,,,,,,,,,,,,,,0,7,7,7,0,8,8,8,,,,,,,,,,,,,,,,,,,1015.4518066250002,p,0.10707487499894341,1015.6109942920002,,,,,,00004,B,2024-06-20_14h43.49.043,EPIDM,2022.2.5,None,
P233.jpg,3060.jpg,1 Point,1 Point,447 points,PS2_L8.csv,,,,,,,,,,,,,,,,,,,,,,,,,,,,,0,7,7,7,0,9,9,9,,,,,,,,,,,,,,,,,,,1019.8631706670003,p,0.04357791599977645,1019.9813146249999,,,,,,00004,B,2024-06-20_14h43.49.043,EPIDM,2022.2.5,None,
1090.jpg,P217.jpg,5 Points,5 Points,452 points,PS2_L8.csv,,,,,,,,,,,,,,,,,,,,,,,,,,,,,0,7,7,7,0,10,10,10,,,,,,,,,,,,,,,,,,,1024.204914584,p,0.08517008299895679,1024.4004542920002,,,,,,00004,B,2024-06-20_14h43.49.043,EPIDM,2022.2.5,None,
9405.jpg,6250.2.jpg,3 Points,3 Points,455 points,PS2_L8.csv,,,,,,,,,,,,,,,,,,,,,,,,,,,,,0,7,7,7,0,11,11,11,,,,,,,,,,,,,,,,,,,1028.5834263340003,p,0.031158957999650738,1028.6620225839997,,,,,,00004,B,2024-06-20_14h43.49.043,EPIDM,2022.2.5,None,
1610.jpg,F203.jpg,0 Points,0 Points,455 points,PS2_L8.csv,,,,,,,,,,,,,,,,,,,,,,,,,,,,,0,7,7,7,0,12,12,12,,,,,,,,,,,,,,,,,,,1032.9136967499999,p,0.06008445799943729,1033.0474557090001,,,,,,00004,B,2024-06-20_14h43.49.043,EPIDM,2022.2.5,None,
P222.jpg,9401.jpg,2 Points,2 Points,457 points,PS2_L8.csv,,,,,,,,,,,,,,,,,,,,,,,,,,,,,0,7,7,7,0,13,13,13,,,,,,,,,,,,,,,,,,,1037.2721380419998,p,0.03483937499913736,1037.387111125,2,1.0528203750000102,,,,00004,B,2024-06-20_14h43.49.043,EPIDM,2022.2.5,None,
5471.jpg,7352.jpg,2 Points,2 Points,459 points,PS2_L8.csv,,,,,,,,,,,,,,,,,,,,,,,,,,,,,0,7,7,7,0,14,14,14,,,,,,,,,,,,,,,,,,,1042.7444389170005,p,0.0709864579994246,1042.881932542,,,,,,00004,B,2024-06-20_14h43.49.043,EPIDM,2022.2.5,None,
9042.jpg,2753.jpg,0 Points,0 Points,459 points,PS2_L8.csv,,,,,,,,,,,,,,,,,,,,,,,,,,,,,0,7,7,7,0,15,15,15,,,,,,,,,,,,,,,,,,,1047.1067673750003,p,0.01283408299968869,1047.153413084,,,,,,00004,B,2024-06-20_14h43.49.043,EPIDM,2022.2.5,None,
8311.jpg,4609.jpg,2 Points,2 Points,461 points,PS2_L8.csv,,,,,,,,,,,,,,,,,,,,,,,,,,,,,0,7,7,7,0,16,16,16,,,,,,,,,,,,,,,,,,,1051.421857542,p,0.02106679099961184,1051.4765074590005,,,,,,00004,B,2024-06-20_14h43.49.043,EPIDM,2022.2.5,None,
2320.jpg,2791.jpg,4 Points,4 Points,465 points,PS2_L8.csv,,,,,,,,,,,,,,,,,,,,,,,,,,,,,0,7,7,7,0,17,17,17,,,,,,,,,,,,,,,,,,,1055.7508768750004,p,0.40195029099959356,1056.1853501670003,,,,,,00004,B,2024-06-20_14h43.49.043,EPIDM,2022.2.5,None,
F365.jpg,3180.jpg,5 Points,5 Points,470 points,PS2_L8.csv,,,,,,,,,,,,,,,,,,,,,,,,,,,,,0,7,7,7,0,18,18,18,,,,,,,,,,,,,,,,,,,1060.442842292,p,0.12116491599954315,1060.628419875,,,,,,00004,B,2024-06-20_14h43.49.043,EPIDM,2022.2.5,None,
9300.jpg,1050.jpg,4 Points,4 Points,474 points,PS2_L8.csv,,,,,,,,,,,,,,,,,,,,,,,,,,,,,0,7,7,7,0,19,19,19,,,,,,,,,,,,,,,,,,,1064.8575284170001,p,0.06678937499964377,1065.0003690840003,,,,,,00004,B,2024-06-20_14h43.49.043,EPIDM,2022.2.5,None,
6150.jpg,2206.jpg,0 Points,0 Points,474 points,PS2_L8.csv,,,,,,,,,,,,,,,,,,,,,,,,,,,,,0,7,7,7,0,20,20,20,,,,,,,,,,,,,,,,,,,1069.2294302500004,p,0.04800191699996503,1069.3265065840005,,,,,,00004,B,2024-06-20_14h43.49.043,EPIDM,2022.2.5,None,
6260.jpg,3062.jpg,3 Points,3 Points,477 points,PS2_L8.csv,,,,,,,,,,,,,,,,,,,,,,,,,,,,,0,7,7,7,0,21,21,21,,,,,,,,,,,,,,,,,,,1073.5960638340002,p,0.03039849999913713,1073.6835696670005,,,,,,00004,B,2024-06-20_14h43.49.043,EPIDM,2022.2.5,None,
6571.jpg,P237.jpg,2 Points,2 Points,479 points,PS2_L8.csv,,,,,,,,,,,,,,,,,,,,,,,,,,,,,0,7,7,7,0,22,22,22,,,,,,,,,,,,,,,,,,,1077.9372129590001,p,0.27534383299916954,1078.2998696670002,,,,,,00004,B,2024-06-20_14h43.49.043,EPIDM,2022.2.5,None,
7283.jpg,1720.jpg,4 Points,4 Points,483 points,PS2_L8.csv,,,,,,,,,,,,,,,,,,,,,,,,,,,,,0,7,7,7,0,23,23,23,,,,,,,,,,,,,,,,,,,1082.5197742500004,p,0.12943620799978817,1082.6958853340002,,,1093.059740959,space,0.9885437909988468,00004,B,2024-06-20_14h43.49.043,EPIDM,2022.2.5,None,
3160.jpg,6210.jpg,1 Point,1 Point,484 points,PS2_L9.csv,,,,,,,,,,,,,,,,,,,,,,,,,,,,,0,8,8,8,0,0,0,0,,,,,,,,,,,,,,,,,,,1097.3539365839997,p,0.026931748999231786,1097.4230026670002,,,,,,00004,B,2024-06-20_14h43.49.043,EPIDM,2022.2.5,None,
2100.jpg,7205.jpg,5 Points,5 Points,489 points,PS2_L9.csv,,,,,,,,,,,,,,,,,,,,,,,,,,,,,0,8,8,8,0,1,1,1,,,,,,,,,,,,,,,,,,,1101.6754392089997,p,0.08501879099912912,1101.8047230419998,5,1.3268340829999943,,,,00004,B,2024-06-20_14h43.49.043,EPIDM,2022.2.5,None,
9110.jpg,3051.jpg,1 Point,1 Point,490 points,PS2_L9.csv,,,,,,,,,,,,,,,,,,,,,,,,,,,,,0,8,8,8,0,2,2,2,,,,,,,,,,,,,,,,,,,1107.4371816250004,p,0.27438108299975283,1107.7639710000003,,,,,,00004,B,2024-06-20_14h43.49.043,EPIDM,2022.2.5,None,
9101.jpg,9571.jpg,2 Points,2 Points,492 points,PS2_L9.csv,,,,,,,,,,,,,,,,,,,,,,,,,,,,,0,8,8,8,0,3,3,3,,,,,,,,,,,,,,,,,,,1112.0099245000001,p,0.17240362399934384,1112.2371188750003,,,,,,00004,B,2024-06-20_14h43.49.043,EPIDM,2022.2.5,None,
5410.jpg,1450.jpg,5 Points,5 Points,497 points,PS2_L9.csv,,,,,,,,,,,,,,,,,,,,,,,,,,,,,0,8,8,8,0,4,4,4,,,,,,,,,,,,,,,,,,,1116.4866873339997,p,0.3299204989989448,1116.8528869170004,,,,,,00004,B,2024-06-20_14h43.49.043,EPIDM,2022.2.5,None,
F149.jpg,3030.jpg,0 Points,0 Points,497 points,PS2_L9.csv,,,,,,,,,,,,,,,,,,,,,,,,,,,,,0,8,8,8,0,5,5,5,,,,,,,,,,,,,,,,,,,1121.1176428750005,p,0.0760731249993114,1121.2698087090002,,,,,,00004,B,2024-06-20_14h43.49.043,EPIDM,2022.2.5,None,
3266.jpg,7360.jpg,1 Point,1 Point,498 points,PS2_L9.csv,,,,,,,,,,,,,,,,,,,,,,,,,,,,,0,8,8,8,0,6,6,6,,,,,,,,,,,,,,,,,,,1125.5079057089997,p,0.014127248999102449,1125.6071955420002,,,,,,00004,B,2024-06-20_14h43.49.043,EPIDM,2022.2.5,None,
5660.jpg,5201.jpg,0 Points,0 Points,498 points,PS2_L9.csv,,,,,,,,,,,,,,,,,,,,,,,,,,,,,0,8,8,8,0,7,7,7,,,,,,,,,,,,,,,,,,,1129.8219542920006,p,0.12127958299970487,1129.9874865419997,,,,,,00004,B,2024-06-20_14h43.49.043,EPIDM,2022.2.5,None,
1945.jpg,2800.jpg,4 Points,4 Points,502 points,PS2_L9.csv,,,,,,,,,,,,,,,,,,,,,,,,,,,,,0,8,8,8,0,8,8,8,,,,,,,,,,,,,,,,,,,1134.2451529999998,p,0.1412179159997322,1134.4344980000005,,,,,,00004,B,2024-06-20_14h43.49.043,EPIDM,2022.2.5,None,
3000.jpg,6200.jpg,5 Points,5 Points,507 points,PS2_L9.csv,,,,,,,,,,,,,,,,,,,,,,,,,,,,,0,8,8,8,0,9,9,9,,,,,,,,,,,,,,,,,,,1138.689522834,p,0.31171549999999115,1139.057378042,,,,,,00004,B,2024-06-20_14h43.49.043,EPIDM,2022.2.5,None,
2215.jpg,2512.jpg,1 Point,1 Point,508 points,PS2_L9.csv,,,,,,,,,,,,,,,,,,,,,,,,,,,,,0,8,8,8,0,10,10,10,,,,,,,,,,,,,,,,,,,1143.3038944170003,p,0.10657029099911597,1143.4625678339999,,,,,,00004,B,2024-06-20_14h43.49.043,EPIDM,2022.2.5,None,
5460.jpg,5800.jpg,0 Points,0 Points,508 points,PS2_L9.csv,,,,,,,,,,,,,,,,,,,,,,,,,,,,,0,8,8,8,0,11,11,11,,,,,,,,,,,,,,,,,,,1147.7430247090006,p,0.21302758299952984,1148.00598,,,,,,00004,B,2024-06-20_14h43.49.043,EPIDM,2022.2.5,None,
3061.jpg,2717.jpg,4 Points,4 Points,512 points,PS2_L9.csv,,,,,,,,,,,,,,,,,,,,,,,,,,,,,0,8,8,8,0,12,12,12,,,,,,,,,,,,,,,,,,,1152.2559877499998,p,0.08337083300011727,1152.3781024170003,,,,,,00004,B,2024-06-20_14h43.49.043,EPIDM,2022.2.5,None,
7380.jpg,1220.jpg,1 Point,1 Point,513 points,PS2_L9.csv,,,,,,,,,,,,,,,,,,,,,,,,,,,,,0,8,8,8,0,13,13,13,,,,,,,,,,,,,,,,,,,1156.6497781670005,p,0.5819350829997347,1157.2629658340002,1,0.6398536669994428,,,,00004,B,2024-06-20_14h43.49.043,EPIDM,2022.2.5,None,
1740.jpg,7480.jpg,0 Points,0 Points,513 points,PS2_L9.csv,,,,,,,,,,,,,,,,,,,,,,,,,,,,,0,8,8,8,0,14,14,14,,,,,,,,,,,,,,,,,,,1162.2026824590002,p,0.37532399999872723,1162.625377167,,,,,,00004,B,2024-06-20_14h43.49.043,EPIDM,2022.2.5,None,
7285.jpg,4233.jpg,5 Points,5 Points,518 points,PS2_L9.csv,,,,,,,,,,,,,,,,,,,,,,,,,,,,,0,8,8,8,0,15,15,15,,,,,,,,,,,,,,,,,,,1166.8866502090004,p,0.041013749999365245,1166.9679871670005,,,,,,00004,B,2024-06-20_14h43.49.043,EPIDM,2022.2.5,None,
6830.jpg,6212.jpg,4 Points,4 Points,522 points,PS2_L9.csv,,,,,,,,,,,,,,,,,,,,,,,,,,,,,0,8,8,8,0,16,16,16,,,,,,,,,,,,,,,,,,,1171.2485355,p,0.15697445799924026,1171.4422169999998,,,,,,00004,B,2024-06-20_14h43.49.043,EPIDM,2022.2.5,None,
7830.jpg,2499.jpg,3 Points,3 Points,525 points,PS2_L9.csv,,,,,,,,,,,,,,,,,,,,,,,,,,,,,0,8,8,8,0,17,17,17,,,,,,,,,,,,,,,,,,,1175.7068815419998,p,0.04989004099934391,1175.8085244169997,,,,,,00004,B,2024-06-20_14h43.49.043,EPIDM,2022.2.5,None,
9520.jpg,1931.jpg,3 Points,3 Points,528 points,PS2_L9.csv,,,,,,,,,,,,,,,,,,,,,,,,,,,,,0,8,8,8,0,18,18,18,,,,,,,,,,,,,,,,,,,1180.060748459,p,0.14939891699941654,1180.247582084,,,,,,00004,B,2024-06-20_14h43.49.043,EPIDM,2022.2.5,None,
9160.jpg,1200.jpg,4 Points,4 Points,532 points,PS2_L9.csv,,,,,,,,,,,,,,,,,,,,,,,,,,,,,0,8,8,8,0,19,19,19,,,,,,,,,,,,,,,,,,,1184.5100745,p,0.097601957999359,1184.649103625,,,,,,00004,B,2024-06-20_14h43.49.043,EPIDM,2022.2.5,None,
2020.jpg,1947.jpg,5 Points,5 Points,537 points,PS2_L9.csv,,,,,,,,,,,,,,,,,,,,,,,,,,,,,0,8,8,8,0,20,20,20,,,,,,,,,,,,,,,,,,,1188.9062888340004,p,0.10882416699951136,1189.0703209590001,,,,,,00004,B,2024-06-20_14h43.49.043,EPIDM,2022.2.5,None,
4535.jpg,1811.jpg,1 Point,1 Point,538 points,PS2_L9.csv,,,,,,,,,,,,,,,,,,,,,,,,,,,,,0,8,8,8,0,21,21,21,,,,,,,,,,,,,,,,,,,1193.3247777920005,p,0.2732644990001063,1193.6456602090002,,,,,,00004,B,2024-06-20_14h43.49.043,EPIDM,2022.2.5,None,
9910.jpg,6940.jpg,2 Points,2 Points,540 points,PS2_L9.csv,,,,,,,,,,,,,,,,,,,,,,,,,,,,,0,8,8,8,0,22,22,22,,,,,,,,,,,,,,,,,,,1197.8940826670005,p,0.08343145799881313,1198.0311165000003,,,,,,00004,B,2024-06-20_14h43.49.043,EPIDM,2022.2.5,None,
9480.jpg,9250.jpg,0 Points,0 Points,540 points,PS2_L9.csv,,,,,,,,,,,,,,,,,,,,,,,,,,,,,0,8,8,8,0,23,23,23,,,,,,,,,,,,,,,,,,,1202.3027275840004,p,0.3447428739991665,1202.6855918339998,,,1213.091284084,space,2.0334347489997526,00004,B,2024-06-20_14h43.49.043,EPIDM,2022.2.5,None,
1660.jpg,2840.jpg,2 Points,2 Points,542 points,PS2_L10.csv,,,,,,,,,,,,,,,,,,,,,,,,,,,,,0,9,9,9,0,0,0,0,,,,,,,,,,,,,,,,,,,1218.4357310000005,p,0.7741308329996173,1219.2527903750006,,,,,,00004,B,2024-06-20_14h43.49.043,EPIDM,2022.2.5,None,
2691.jpg,7640.jpg,0 Points,0 Points,542 points,PS2_L10.csv,,,,,,,,,,,,,,,,,,,,,,,,,,,,,0,9,9,9,0,1,1,1,,,,,,,,,,,,,,,,,,,1223.5127867090005,p,0.044246457999179256,1223.5937411670002,0,0.5266118749996167,,,,00004,B,2024-06-20_14h43.49.043,EPIDM,2022.2.5,None,
9180.jpg,9046.jpg,3 Points,3 Points,545 points,PS2_L10.csv,,,,,,,,,,,,,,,,,,,,,,,,,,,,,0,9,9,9,0,2,2,2,,,,,,,,,,,,,,,,,,,1228.4059257090003,p,0.8790459999991072,1229.3251365000006,,,,,,00004,B,2024-06-20_14h43.49.043,EPIDM,2022.2.5,None,
8041.jpg,2271.jpg,2 Points,2 Points,547 points,PS2_L10.csv,,,,,,,,,,,,,,,,,,,,,,,,,,,,,0,9,9,9,0,3,3,3,,,,,,,,,,,,,,,,,,,1233.5833708750006,p,0.14875220799967792,1233.771379375,,,,,,00004,B,2024-06-20_14h43.49.043,EPIDM,2022.2.5,None,
1661.jpg,1321.jpg,3 Points,3 Points,550 points,PS2_L10.csv,,,,,,,,,,,,,,,,,,,,,,,,,,,,,0,9,9,9,0,4,4,4,,,,,,,,,,,,,,,,,,,1238.0264054170002,p,0.7939808330002052,1238.853703459,,,,,,00004,B,2024-06-20_14h43.49.043,EPIDM,2022.2.5,None,
9430.jpg,3010.jpg,5 Points,5 Points,555 points,PS2_L10.csv,,,,,,,,,,,,,,,,,,,,,,,,,,,,,0,9,9,9,0,5,5,5,,,,,,,,,,,,,,,,,,,1243.1280434999999,p,0.01969754199944873,1243.1805800000002,,,,,,00004,B,2024-06-20_14h43.49.043,EPIDM,2022.2.5,None,
2616.jpg,7238.jpg,4 Points,4 Points,559 points,PS2_L10.csv,,,,,,,,,,,,,,,,,,,,,,,,,,,,,0,9,9,9,0,6,6,6,,,,,,,,,,,,,,,,,,,1247.4480384999997,p,0.20764299999973446,1247.6962956670004,,,,,,00004,B,2024-06-20_14h43.49.043,EPIDM,2022.2.5,None,
9470.jpg,9400.jpg,3 Points,3 Points,562 points,PS2_L10.csv,,,,,,,,,,,,,,,,,,,,,,,,,,,,,0,9,9,9,0,7,7,7,,,,,,,,,,,,,,,,,,,1251.9569919169999,p,0.4433558749997246,1252.4345563750003,,,,,,00004,B,2024-06-20_14h43.49.043,EPIDM,2022.2.5,None,
8260.jpg,8280.jpg,3 Points,3 Points,565 points,PS2_L10.csv,,,,,,,,,,,,,,,,,,,,,,,,,,,,,0,9,9,9,0,8,8,8,,,,,,,,,,,,,,,,,,,1256.699544917,p,0.6140447079997102,1257.3437543750006,,,,,,00004,B,2024-06-20_14h43.49.043,EPIDM,2022.2.5,None,
9230.jpg,9181.jpg,0 Points,0 Points,565 points,PS2_L10.csv,,,,,,,,,,,,,,,,,,,,,,,,,,,,,0,9,9,9,0,9,9,9,,,,,,,,,,,,,,,,,,,1261.6213633750003,p,0.02564516599977651,1261.6980573749997,,,,,,00004,B,2024-06-20_14h43.49.043,EPIDM,2022.2.5,None,
6834.jpg,9120.jpg,5 Points,5 Points,570 points,PS2_L10.csv,,,,,,,,,,,,,,,,,,,,,,,,,,,,,0,9,9,9,0,10,10,10,,,,,,,,,,,,,,,,,,,1265.9729685840002,p,0.031433873999048956,1266.0412880000003,,,,,,00004,B,2024-06-20_14h43.49.043,EPIDM,2022.2.5,None,
2440.jpg,7351.jpg,4 Points,4 Points,574 points,PS2_L10.csv,,,,,,,,,,,,,,,,,,,,,,,,,,,,,0,9,9,9,0,11,11,11,,,,,,,,,,,,,,,,,,,1270.306960125,p,0.3067817079991073,1270.6574156249999,,,,,,00004,B,2024-06-20_14h43.49.043,EPIDM,2022.2.5,None,
9280.jpg,9390.jpg,1 Point,1 Point,575 points,PS2_L10.csv,,,,,,,,,,,,,,,,,,,,,,,,,,,,,0,9,9,9,0,12,12,12,,,,,,,,,,,,,,,,,,,1274.91756575,p,0.009122624999690743,1274.967946459,,,,,,00004,B,2024-06-20_14h43.49.043,EPIDM,2022.2.5,None,
7186.jpg,9182.jpg,2 Points,2 Points,577 points,PS2_L10.csv,,,,,,,,,,,,,,,,,,,,,,,,,,,,,0,9,9,9,0,13,13,13,,,,,,,,,,,,,,,,,,,1279.2273597920002,p,0.04037412499928905,1279.3133897919997,2,0.46988341699943703,,,,00004,B,2024-06-20_14h43.49.043,EPIDM,2022.2.5,None,
7820.jpg,1121.jpg,0 Points,0 Points,577 points,PS2_L10.csv,,,,,,,,,,,,,,,,,,,,,,,,,,,,,0,9,9,9,0,14,14,14,,,,,,,,,,,,,,,,,,,1284.0780074590002,p,0.05561029099862935,1284.182715084,,,,,,00004,B,2024-06-20_14h43.49.043,EPIDM,2022.2.5,None,
1110.jpg,9331.jpg,2 Points,2 Points,579 points,PS2_L10.csv,,,,,,,,,,,,,,,,,,,,,,,,,,,,,0,9,9,9,0,15,15,15,,,,,,,,,,,,,,,,,,,1288.4316984590005,p,0.14328687499983062,1288.6166952089998,,,,,,00004,B,2024-06-20_14h43.49.043,EPIDM,2022.2.5,None,
9001.jpg,9620.jpg,1 Point,1 Point,580 points,PS2_L10.csv,,,,,,,,,,,,,,,,,,,,,,,,,,,,,0,9,9,9,0,16,16,16,,,,,,,,,,,,,,,,,,,1292.8680196249998,p,0.0653933749999851,1292.988557959,,,,,,00004,B,2024-06-20_14h43.49.043,EPIDM,2022.2.5,None,
5535.jpg,8210.jpg,3 Points,3 Points,583 points,PS2_L10.csv,,,,,,,,,,,,,,,,,,,,,,,,,,,,,0,9,9,9,0,17,17,17,,,,,,,,,,,,,,,,,,,1297.2347393750006,p,0.07713870799943834,1297.3565773340006,,,,,,00004,B,2024-06-20_14h43.49.043,EPIDM,2022.2.5,None,
7950.jpg,7187.jpg,1 Point,1 Point,584 points,PS2_L10.csv,,,,,,,,,,,,,,,,,,,,,,,,,,,,,0,9,9,9,0,18,18,18,,,,,,,,,,,,,,,,,,,1301.6095773750003,p,0.11705554199943435,1301.760347042,,,,,,00004,B,2024-06-20_14h43.49.043,EPIDM,2022.2.5,None,
3250.jpg,A053.jpg,3 Points,3 Points,587 points,PS2_L10.csv,,,,,,,,,,,,,,,,,,,,,,,,,,,,,0,9,9,9,0,19,19,19,,,,,,,,,,,,,,,,,,,1306.0280865840004,p,0.041929541998797504,1306.1352407089998,,,,,,00004,B,2024-06-20_14h43.49.043,EPIDM,2022.2.5,None,
2205.jpg,3053.jpg,4 Points,4 Points,591 points,PS2_L10.csv,,,,,,,,,,,,,,,,,,,,,,,,,,,,,0,9,9,9,0,20,20,20,,,,,,,,,,,,,,,,,,,1310.3825569170003,p,0.3312565829992309,1310.7482317920003,,,,,,00004,B,2024-06-20_14h43.49.043,EPIDM,2022.2.5,None,
5594.jpg,5750.jpg,5 Points,5 Points,596 points,PS2_L10.csv,,,,,,,,,,,,,,,,,,,,,,,,,,,,,0,9,9,9,0,21,21,21,,,,,,,,,,,,,,,,,,,1315.0115419169997,p,0.15182658299909235,1315.2271044999998,,,,,,00004,B,2024-06-20_14h43.49.043,EPIDM,2022.2.5,None,
6900.jpg,8531.jpg,4 Points,4 Points,600 points,PS2_L10.csv,,,,,,,,,,,,,,,,,,,,,,,,,,,,,0,9,9,9,0,22,22,22,,,,,,,,,,,,,,,,,,,1319.4819819590002,p,0.636879124999723,1320.1646326250002,,,,,,00004,B,2024-06-20_14h43.49.043,EPIDM,2022.2.5,None,
1019.jpg,2120.jpg,0 Points,0 Points,600 points,PS2_L10.csv,,,,,,,,,,,,,,,,,,,,,,,,,,,,,0,9,9,9,0,23,23,23,,,,,,,,,,,,,,,,,,,1324.4245541669998,p,0.857393582999066,1325.32479125,,,1335.7019832920005,space,1.415099249999912,00004,B,2024-06-20_14h43.49.043,EPIDM,2022.2.5,None,
