L_Scene,R_Scene,Points_L,Points_R,PtTotal,blockFile,Instructions_Loop.thisRepN,Instructions_Loop.thisTrialN,Instructions_Loop.thisN,Instructions_Loop.thisIndex,Redo_Instructions_Loop.thisRepN,Redo_Instructions_Loop.thisTrialN,Redo_Instructions_Loop.thisN,Redo_Instructions_Loop.thisIndex,Practice_Encoding_Loop.thisRepN,Practice_Encoding_Loop.thisTrialN,Practice_Encoding_Loop.thisN,Practice_Encoding_Loop.thisIndex,Practice_Response_Fail_Loop.thisRepN,Practice_Response_Fail_Loop.thisTrialN,Practice_Response_Fail_Loop.thisN,Practice_Response_Fail_Loop.thisIndex,Practice_FB_Loop.thisRepN,Practice_FB_Loop.thisTrialN,Practice_FB_Loop.thisN,Practice_FB_Loop.thisIndex,Practice_Attention_Loop.thisRepN,Practice_Attention_Loop.thisTrialN,Practice_Attention_Loop.thisN,Practice_Attention_Loop.thisIndex,Practice_EncBrk_Loop.thisRepN,Practice_EncBrk_Loop.thisTrialN,Practice_EncBrk_Loop.thisN,Practice_EncBrk_Loop.thisIndex,Encoding_Loop.thisRepN,Encoding_Loop.thisTrialN,Encoding_Loop.thisN,Encoding_Loop.thisIndex,EncStim_Loop.thisRepN,EncStim_Loop.thisTrialN,EncStim_Loop.thisN,EncStim_Loop.thisIndex,Response_Fail_Loop.thisRepN,Response_Fail_Loop.thisTrialN,Response_Fail_Loop.thisN,Response_Fail_Loop.thisIndex,FB_Loop.thisRepN,FB_Loop.thisTrialN,FB_Loop.thisN,FB_Loop.thisIndex,Attention_Loop.thisRepN,Attention_Loop.thisTrialN,Attention_Loop.thisN,Attention_Loop.thisIndex,EncBrk_Loop.thisRepN,EncBrk_Loop.thisTrialN,EncBrk_Loop.thisN,EncBrk_Loop.thisIndex,Transition_Enc.keys,Transition_Enc.rt,Encoding_Resp.started,Encoding_Resp.keys,Encoding_Resp.rt,R_Point_FB_Stim.started,Attn_resp.keys,Attn_resp.rt,Progress_Tracker.started,EncBrk_Resp.keys,EncBrk_Resp.rt,Encoding_Resp.stopped,participant,Group,date,expName,psychopyVersion,frameRate,
,,,,,,,,,,,,,,,,,,,,,,,,,,,,,,,,,,,,,,,,,,,,,,,,,,,,,,,,,,space,0.896023166999953,,,,,,,,,,,02138,A,2024-05-29_23h21.03.857,EPIDM,2022.2.5,None,
9600.png,9810.png,5 Points,5 Points,5 Points,,,,,,,,,,0,0,0,0,,,,,,,,,,,,,,,,,,,,,,,,,,,,,,,,,,,,,,,,,,,43.65835641699999,q,0.07012624899999764,43.78389712500001,,,,,,,02138,A,2024-05-29_23h21.03.857,EPIDM,2022.2.5,None,
1121.png,1812.png,2 Points,2 Points,7 Points,,,,,,,,,,0,1,1,1,,,,,,,,,,,,,,,,,,,,,,,,,,,,,,,,,,,,,,,,,,,48.04645529199996,p,0.09563129100001788,48.19139312499999,,,,,,,02138,A,2024-05-29_23h21.03.857,EPIDM,2022.2.5,None,
9830.png,9911.png,3 Points,3 Points,10 Points,,,,,,,,,,0,2,2,2,,,,,,,,,,,,,,,,,,,,,,,,,,,,,,,,,,,,,,,,,,,52.45334704199996,p,0.13714095799997494,52.6216675,,,,,,,02138,A,2024-05-29_23h21.03.857,EPIDM,2022.2.5,None,
2683.png,2716.png,5 Points,5 Points,15 Points,,,,,,,,,,0,3,3,3,,,,,,,,,,,,,,,,,,,,,,,,,,,,,,,,,,,,,,,,,,,56.88477987499999,q,0.40119349999997667,57.32775412500001,,,,,,,02138,A,2024-05-29_23h21.03.857,EPIDM,2022.2.5,None,
1947.png,2393.png,0 Points,0 Points,15 Points,,,,,,,,,,0,4,4,4,,,,,,,,,,,,,,,,,,,,,,,,,,,,,,,,,,,,,,,,,,,61.622489916999996,p,0.07586891599999035,61.74587083299997,a,1.926858832999983,,,,,02138,A,2024-05-29_23h21.03.857,EPIDM,2022.2.5,None,
3069.png,6415.png,3 Points,3 Points,18 Points,,,,,,,,,,0,5,5,5,,,,,,,,,,,,,,,,,,,,,,,,,,,,,,,,,,,,,,,,,,,67.989028792,q,0.2099271249999788,68.23285787499998,,,,,,,02138,A,2024-05-29_23h21.03.857,EPIDM,2022.2.5,None,
2500.png,2593.png,2 Points,2 Points,20 Points,,,,,,,,,,0,6,6,6,,,,,,,,,,,,,,,,,,,,,,,,,,,,,,,,,,,,,,,,,,,72.49511866699999,p,0.4580970000000093,72.997678958,,,,,,,02138,A,2024-05-29_23h21.03.857,EPIDM,2022.2.5,None,
2598.png,2605.png,0 Points,0 Points,20 Points,,,,,,,,,,0,7,7,7,,,,,,,,,,,,,,,,,,,,,,,,,,,,,,,,,,,,,,,,,,,77.261423208,q,0.11944358299996338,77.42571670799998,,,,,,,02138,A,2024-05-29_23h21.03.857,EPIDM,2022.2.5,None,
9424.png,9921.png,1 Points,1 Points,21 Points,,,,,,,,,,0,8,8,8,,,,,,,,,,,,,,,,,,,,,,,,,,,,,,,,,,,,,,,,,,,81.694963583,q,0.0958762499999466,81.83397754199996,,,,,,,02138,A,2024-05-29_23h21.03.857,EPIDM,2022.2.5,None,
8186.png,5731.png,2 Points,2 Points,23 Points,,,,,,,,,,0,9,9,9,,,,,,,,,,,,,,,,,,,,,,,,,,,,,,,,,,,,,,,,,,,86.10628270799998,p,0.15596020799995358,86.30266395799998,o,1.3058379990000049,97.716244458,space,0.9744955410000102,,02138,A,2024-05-29_23h21.03.857,EPIDM,2022.2.5,None,
,,,,,,,,,,,,,,,,,,,,,,,,,,,,,,,,,,,,,,,,,,,,,,,,,,,,,,,,,,space,0.7058084160000249,,,,,,,,,,,02138,A,2024-05-29_23h21.03.857,EPIDM,2022.2.5,None,
1019.jpg,2120.jpg,0 Points,0 Points,0 Points,PS1_L1.csv,,,,,,,,,,,,,,,,,,,,,,,,,,,,,0,0,0,0,0,0,0,0,,,,,,,,,,,,,,,,,,,109.77169254199998,q,0.1595894999999814,109.98020895799999,,,,,,,02138,A,2024-05-29_23h21.03.857,EPIDM,2022.2.5,None,
6900.jpg,8531.jpg,4 Points,4 Points,4 Points,PS1_L1.csv,,,,,,,,,,,,,,,,,,,,,,,,,,,,,0,0,0,0,0,1,1,1,,,,,,,,,,,,,,,,,,,114.24224625,p,0.1045703739999908,114.39829883300001,o,2.442989333000014,,,,,02138,A,2024-05-29_23h21.03.857,EPIDM,2022.2.5,None,
5594.jpg,5750.jpg,5 Points,5 Points,9 Points,PS1_L1.csv,,,,,,,,,,,,,,,,,,,,,,,,,,,,,0,0,0,0,0,2,2,2,,,,,,,,,,,,,,,,,,,121.12954324999998,q,0.013111291000029723,121.19187525000001,,,,,,,02138,A,2024-05-29_23h21.03.857,EPIDM,2022.2.5,None,
2205.jpg,3053.jpg,4 Points,4 Points,13 Points,PS1_L1.csv,,,,,,,,,,,,,,,,,,,,,,,,,,,,,0,0,0,0,0,3,3,3,,,,,,,,,,,,,,,,,,,125.45397195800001,p,0.0824758329999895,125.572263792,,,,,,,02138,A,2024-05-29_23h21.03.857,EPIDM,2022.2.5,None,
3250.jpg,3190.jpg,3 Points,3 Points,16 Points,PS1_L1.csv,,,,,,,,,,,,,,,,,,,,,,,,,,,,,0,0,0,0,0,4,4,4,,,,,,,,,,,,,,,,,,,129.83565704199998,q,0.4119443330000081,130.294666833,,,,,,,02138,A,2024-05-29_23h21.03.857,EPIDM,2022.2.5,None,
4670.jpg,4611.jpg,1 Points,1 Points,17 Points,PS1_L1.csv,,,,,,,,,,,,,,,,,,,,,,,,,,,,,0,0,0,0,0,5,5,5,,,,,,,,,,,,,,,,,,,134.57155725,p,0.2834689580000145,134.897122125,,,,,,,02138,A,2024-05-29_23h21.03.857,EPIDM,2022.2.5,None,
5535.jpg,8210.jpg,3 Points,3 Points,20 Points,PS1_L1.csv,,,,,,,,,,,,,,,,,,,,,,,,,,,,,0,0,0,0,0,6,6,6,,,,,,,,,,,,,,,,,,,139.15056804199997,p,0.30562879100000373,139.49853670799996,,,,,,,02138,A,2024-05-29_23h21.03.857,EPIDM,2022.2.5,None,
9001.jpg,9620.jpg,1 Points,1 Points,21 Points,PS1_L1.csv,,,,,,,,,,,,,,,,,,,,,,,,,,,,,0,0,0,0,0,7,7,7,,,,,,,,,,,,,,,,,,,143.7663735,p,0.11880804099996567,143.93990579199993,,,,,,,02138,A,2024-05-29_23h21.03.857,EPIDM,2022.2.5,None,
1110.jpg,9331.jpg,2 Points,2 Points,23 Points,PS1_L1.csv,,,,,,,,,,,,,,,,,,,,,,,,,,,,,0,0,0,0,0,8,8,8,,,,,,,,,,,,,,,,,,,148.190489,p,0.31844112499999255,148.55024254200003,,,,,,,02138,A,2024-05-29_23h21.03.857,EPIDM,2022.2.5,None,
4320.jpg,4470.jpg,0 Points,0 Points,23 Points,PS1_L1.csv,,,,,,,,,,,,,,,,,,,,,,,,,,,,,0,0,0,0,0,9,9,9,,,,,,,,,,,,,,,,,,,152.80110899999994,p,0.5770251660000554,153.434758208,,,,,,,02138,A,2024-05-29_23h21.03.857,EPIDM,2022.2.5,None,
4520.jpg,4000.jpg,2 Points,2 Points,25 Points,PS1_L1.csv,,,,,,,,,,,,,,,,,,,,,,,,,,,,,0,0,0,0,0,10,10,10,,,,,,,,,,,,,,,,,,,157.68186933299995,p,0.8489953330000048,158.58027395799996,,,,,,,02138,A,2024-05-29_23h21.03.857,EPIDM,2022.2.5,None,
9280.jpg,9390.jpg,1 Points,1 Points,26 Points,PS1_L1.csv,,,,,,,,,,,,,,,,,,,,,,,,,,,,,0,0,0,0,0,11,11,11,,,,,,,,,,,,,,,,,,,162.84330762500002,p,1.7047424579999984,164.58993354199998,,,,,,,02138,A,2024-05-29_23h21.03.857,EPIDM,2022.2.5,None,
2440.jpg,4658.jpg,1 Points,1 Points,27 Points,PS1_L1.csv,,,,,,,,,,,,,,,,,,,,,,,,,,,,,0,0,0,0,0,12,12,12,,,,,,,,,,,,,,,,,,,168.84026483299994,p,0.33894508299994186,169.21540870799998,,,,,,,02138,A,2024-05-29_23h21.03.857,EPIDM,2022.2.5,None,
6834.jpg,9120.jpg,5 Points,5 Points,32 Points,PS1_L1.csv,,,,,,,,,,,,,,,,,,,,,,,,,,,,,0,0,0,0,0,13,13,13,,,,,,,,,,,,,,,,,,,173.468566458,p,0.7732307910000031,174.276769042,o,2.3399566659999778,,,,,02138,A,2024-05-29_23h21.03.857,EPIDM,2022.2.5,None,
9230.jpg,9181.jpg,0 Points,0 Points,32 Points,PS1_L1.csv,,,,,,,,,,,,,,,,,,,,,,,,,,,,,0,0,0,0,0,14,14,14,,,,,,,,,,,,,,,,,,,180.90233341699997,p,0.5621046240000283,181.498454083,,,,,,,02138,A,2024-05-29_23h21.03.857,EPIDM,2022.2.5,None,
8260.jpg,8280.jpg,5 Points,5 Points,37 Points,PS1_L1.csv,,,,,,,,,,,,,,,,,,,,,,,,,,,,,0,0,0,0,0,15,15,15,,,,,,,,,,,,,,,,,,,185.76071066699996,p,0.09432766599996967,185.895282625,,,,,,,02138,A,2024-05-29_23h21.03.857,EPIDM,2022.2.5,None,
9470.jpg,9400.jpg,3 Points,3 Points,40 Points,PS1_L1.csv,,,,,,,,,,,,,,,,,,,,,,,,,,,,,0,0,0,0,0,16,16,16,,,,,,,,,,,,,,,,,,,190.158976667,p,0.09312037500006909,190.288648583,,,,,,,02138,A,2024-05-29_23h21.03.857,EPIDM,2022.2.5,None,
2616.jpg,7238.jpg,4 Points,4 Points,44 Points,PS1_L1.csv,,,,,,,,,,,,,,,,,,,,,,,,,,,,,0,0,0,0,0,17,17,17,,,,,,,,,,,,,,,,,,,194.54878045799995,p,0.15305012499999293,194.73678054199996,,,,,,,02138,A,2024-05-29_23h21.03.857,EPIDM,2022.2.5,None,
9430.jpg,3010.jpg,5 Points,5 Points,49 Points,PS1_L1.csv,,,,,,,,,,,,,,,,,,,,,,,,,,,,,0,0,0,0,0,18,18,18,,,,,,,,,,,,,,,,,,,199.00562095799995,p,0.14373754199999667,199.17917416699999,,,,,,,02138,A,2024-05-29_23h21.03.857,EPIDM,2022.2.5,None,
4690.jpg,1321.jpg,3 Points,3 Points,52 Points,PS1_L1.csv,,,,,,,,,,,,,,,,,,,,,,,,,,,,,0,0,0,0,0,19,19,19,,,,,,,,,,,,,,,,,,,203.45022699999998,p,0.32973254200004476,203.81767595799994,,,,,,,02138,A,2024-05-29_23h21.03.857,EPIDM,2022.2.5,None,
4001.jpg,2271.jpg,2 Points,2 Points,54 Points,PS1_L1.csv,,,,,,,,,,,,,,,,,,,,,,,,,,,,,0,0,0,0,0,20,20,20,,,,,,,,,,,,,,,,,,,208.08163733299995,p,0.0794926239998972,208.20272604199994,,,,,,,02138,A,2024-05-29_23h21.03.857,EPIDM,2022.2.5,None,
9180.jpg,9046.jpg,3 Points,3 Points,57 Points,PS1_L1.csv,,,,,,,,,,,,,,,,,,,,,,,,,,,,,0,0,0,0,0,21,21,21,,,,,,,,,,,,,,,,,,,212.45263970799994,p,0.2375549579999756,212.73001341699995,,,,,,,02138,A,2024-05-29_23h21.03.857,EPIDM,2022.2.5,None,
2691.jpg,7640.jpg,0 Points,0 Points,57 Points,PS1_L1.csv,,,,,,,,,,,,,,,,,,,,,,,,,,,,,0,0,0,0,0,22,22,22,,,,,,,,,,,,,,,,,,,216.979873542,p,0.16133179100000916,217.174878083,,,,,,,02138,A,2024-05-29_23h21.03.857,EPIDM,2022.2.5,None,
1660.jpg,2840.jpg,2 Points,2 Points,59 Points,PS1_L1.csv,,,,,,,,,,,,,,,,,,,,,,,,,,,,,0,0,0,0,0,23,23,23,,,,,,,,,,,,,,,,,,,221.43795191700002,p,0.20055837499995732,221.67587620800003,,,232.058888125,space,0.8367029999998863,,02138,A,2024-05-29_23h21.03.857,EPIDM,2022.2.5,None,
9480.jpg,9250.jpg,0 Points,0 Points,59 Points,PS1_L2.csv,,,,,,,,,,,,,,,,,,,,,,,,,,,,,0,1,1,1,0,0,0,0,,,,,,,,,,,,,,,,,,,236.18808191700003,p,0.15863158300004443,236.40061958300004,,,,,,,02138,A,2024-05-29_23h21.03.857,EPIDM,2022.2.5,None,
9910.jpg,6940.jpg,2 Points,2 Points,61 Points,PS1_L2.csv,,,,,,,,,,,,,,,,,,,,,,,,,,,,,0,1,1,1,0,1,1,1,,,,,,,,,,,,,,,,,,,240.664952583,p,0.21700320799999417,240.91370458299997,o,2.469085457999938,,,,,02138,A,2024-05-29_23h21.03.857,EPIDM,2022.2.5,None,
4535.jpg,1811.jpg,1 Points,1 Points,62 Points,PS1_L2.csv,,,,,,,,,,,,,,,,,,,,,,,,,,,,,0,1,1,1,0,2,2,2,,,,,,,,,,,,,,,,,,,247.697392708,p,0.8551592910000068,248.5955495,,,,,,,02138,A,2024-05-29_23h21.03.857,EPIDM,2022.2.5,None,
2020.jpg,4800.jpg,5 Points,5 Points,67 Points,PS1_L2.csv,,,,,,,,,,,,,,,,,,,,,,,,,,,,,0,1,1,1,0,3,3,3,,,,,,,,,,,,,,,,,,,252.85799779199994,p,0.18155420800002275,253.080004417,,,,,,,02138,A,2024-05-29_23h21.03.857,EPIDM,2022.2.5,None,
9160.jpg,1200.jpg,0 Points,0 Points,67 Points,PS1_L2.csv,,,,,,,,,,,,,,,,,,,,,,,,,,,,,0,1,1,1,0,4,4,4,,,,,,,,,,,,,,,,,,,257.34253795800004,p,0.6252972079999495,258.015914625,,,,,,,02138,A,2024-05-29_23h21.03.857,EPIDM,2022.2.5,None,
9520.jpg,1931.jpg,3 Points,3 Points,70 Points,PS1_L2.csv,,,,,,,,,,,,,,,,,,,,,,,,,,,,,0,1,1,1,0,5,5,5,,,,,,,,,,,,,,,,,,,262.27412733299997,p,0.39335899899998594,262.707158333,,,,,,,02138,A,2024-05-29_23h21.03.857,EPIDM,2022.2.5,None,
4669.jpg,2499.jpg,3 Points,3 Points,73 Points,PS1_L2.csv,,,,,,,,,,,,,,,,,,,,,,,,,,,,,0,1,1,1,0,6,6,6,,,,,,,,,,,,,,,,,,,266.965749917,p,0.24734095799993838,267.243495042,,,,,,,02138,A,2024-05-29_23h21.03.857,EPIDM,2022.2.5,None,
6830.jpg,6212.jpg,4 Points,4 Points,77 Points,PS1_L2.csv,,,,,,,,,,,,,,,,,,,,,,,,,,,,,0,1,1,1,0,7,7,7,,,,,,,,,,,,,,,,,,,271.511431125,p,0.4880156249999459,272.039017292,,,,,,,02138,A,2024-05-29_23h21.03.857,EPIDM,2022.2.5,None,
4687.jpg,4233.jpg,5 Points,5 Points,82 Points,PS1_L2.csv,,,,,,,,,,,,,,,,,,,,,,,,,,,,,0,1,1,1,0,8,8,8,,,,,,,,,,,,,,,,,,,276.31169295800004,p,0.05516995800002178,276.40676375000004,,,,,,,02138,A,2024-05-29_23h21.03.857,EPIDM,2022.2.5,None,
1740.jpg,7480.jpg,0 Points,0 Points,82 Points,PS1_L2.csv,,,,,,,,,,,,,,,,,,,,,,,,,,,,,0,1,1,1,0,9,9,9,,,,,,,,,,,,,,,,,,,280.6788655,p,0.40055633299999727,281.121715167,,,,,,,02138,A,2024-05-29_23h21.03.857,EPIDM,2022.2.5,None,
7380.jpg,1220.jpg,1 Points,1 Points,83 Points,PS1_L2.csv,,,,,,,,,,,,,,,,,,,,,,,,,,,,,0,1,1,1,0,10,10,10,,,,,,,,,,,,,,,,,,,285.38363320799994,p,0.298589040999957,285.71294329200003,,,,,,,02138,A,2024-05-29_23h21.03.857,EPIDM,2022.2.5,None,
3061.jpg,2717.jpg,4 Points,4 Points,87 Points,PS1_L2.csv,,,,,,,,,,,,,,,,,,,,,,,,,,,,,0,1,1,1,0,11,11,11,,,,,,,,,,,,,,,,,,,289.99030954200003,q,0.11349745799992661,290.13401062500003,,,,,,,02138,A,2024-05-29_23h21.03.857,EPIDM,2022.2.5,None,
5460.jpg,5800.jpg,0 Points,0 Points,87 Points,PS1_L2.csv,,,,,,,,,,,,,,,,,,,,,,,,,,,,,0,1,1,1,0,12,12,12,,,,,,,,,,,,,,,,,,,294.419809542,q,0.09712012500000355,294.56690799999996,,,,,,,02138,A,2024-05-29_23h21.03.857,EPIDM,2022.2.5,None,
2215.jpg,2512.jpg,1 Points,1 Points,88 Points,PS1_L2.csv,,,,,,,,,,,,,,,,,,,,,,,,,,,,,0,1,1,1,0,13,13,13,,,,,,,,,,,,,,,,,,,298.830943042,q,0.05189187499996706,298.93422070799994,o,1.383254958000009,,,,,02138,A,2024-05-29_23h21.03.857,EPIDM,2022.2.5,None,
3000.jpg,6200.jpg,5 Points,5 Points,93 Points,PS1_L2.csv,,,,,,,,,,,,,,,,,,,,,,,,,,,,,0,1,1,1,0,14,14,14,,,,,,,,,,,,,,,,,,,304.628724667,p,0.7698005410000519,305.441988375,,,,,,,02138,A,2024-05-29_23h21.03.857,EPIDM,2022.2.5,None,
1945.jpg,2800.jpg,4 Points,4 Points,97 Points,PS1_L2.csv,,,,,,,,,,,,,,,,,,,,,,,,,,,,,0,1,1,1,0,15,15,15,,,,,,,,,,,,,,,,,,,309.702429958,p,0.2275520830000346,309.96994720799995,,,,,,,02138,A,2024-05-29_23h21.03.857,EPIDM,2022.2.5,None,
5660.jpg,5201.jpg,0 Points,0 Points,97 Points,PS1_L2.csv,,,,,,,,,,,,,,,,,,,,,,,,,,,,,0,1,1,1,0,16,16,16,,,,,,,,,,,,,,,,,,,314.22955999999994,q,0.04327720800000634,314.31308629200004,,,,,,,02138,A,2024-05-29_23h21.03.857,EPIDM,2022.2.5,None,
3266.jpg,7360.jpg,1 Points,1 Points,98 Points,PS1_L2.csv,,,,,,,,,,,,,,,,,,,,,,,,,,,,,0,1,1,1,0,17,17,17,,,,,,,,,,,,,,,,,,,318.579316708,p,0.34746591699996543,318.968875125,,,,,,,02138,A,2024-05-29_23h21.03.857,EPIDM,2022.2.5,None,
4664.1.jpg,3030.jpg,0 Points,0 Points,98 Points,PS1_L2.csv,,,,,,,,,,,,,,,,,,,,,,,,,,,,,0,1,1,1,0,18,18,18,,,,,,,,,,,,,,,,,,,323.23452225,p,0.3558385419999581,323.62764824999994,,,,,,,02138,A,2024-05-29_23h21.03.857,EPIDM,2022.2.5,None,
5410.jpg,1450.jpg,5 Points,5 Points,103 Points,PS1_L2.csv,,,,,,,,,,,,,,,,,,,,,,,,,,,,,0,1,1,1,0,19,19,19,,,,,,,,,,,,,,,,,,,327.88591808300004,p,0.37096604100003105,328.29021566700004,,,,,,,02138,A,2024-05-29_23h21.03.857,EPIDM,2022.2.5,None,
9101.jpg,9571.jpg,2 Points,2 Points,105 Points,PS1_L2.csv,,,,,,,,,,,,,,,,,,,,,,,,,,,,,0,1,1,1,0,20,20,20,,,,,,,,,,,,,,,,,,,332.56617254199995,q,0.5314062909999961,333.137131583,,,,,,,02138,A,2024-05-29_23h21.03.857,EPIDM,2022.2.5,None,
9110.jpg,3051.jpg,1 Points,1 Points,106 Points,PS1_L2.csv,,,,,,,,,,,,,,,,,,,,,,,,,,,,,0,1,1,1,0,21,21,21,,,,,,,,,,,,,,,,,,,337.398453792,p,0.19240520800002514,337.63701558299994,,,,,,,02138,A,2024-05-29_23h21.03.857,EPIDM,2022.2.5,None,
2100.jpg,7205.jpg,5 Points,5 Points,111 Points,PS1_L2.csv,,,,,,,,,,,,,,,,,,,,,,,,,,,,,0,1,1,1,0,22,22,22,,,,,,,,,,,,,,,,,,,341.88763758299996,q,0.1774923749999857,342.11241354199996,,,,,,,02138,A,2024-05-29_23h21.03.857,EPIDM,2022.2.5,None,
3160.jpg,6210.jpg,1 Points,1 Points,112 Points,PS1_L2.csv,,,,,,,,,,,,,,,,,,,,,,,,,,,,,0,1,1,1,0,23,23,23,,,,,,,,,,,,,,,,,,,346.38094366699994,p,0.2832132489999708,346.705262333,,,357.06454483299996,space,0.9162483330000555,,02138,A,2024-05-29_23h21.03.857,EPIDM,2022.2.5,None,
4235.jpg,1720.jpg,4 Points,4 Points,116 Points,PS1_L3.csv,,,,,,,,,,,,,,,,,,,,,,,,,,,,,0,2,2,2,0,0,0,0,,,,,,,,,,,,,,,,,,,361.299317292,p,0.8636477079999736,362.20891783299993,,,,,,,02138,A,2024-05-29_23h21.03.857,EPIDM,2022.2.5,None,
6571.jpg,4003.jpg,2 Points,2 Points,118 Points,PS1_L3.csv,,,,,,,,,,,,,,,,,,,,,,,,,,,,,0,2,2,2,0,1,1,1,,,,,,,,,,,,,,,,,,,366.461578083,p,0.5121837910000409,367.0217535,o,1.1829841660000397,,,,,02138,A,2024-05-29_23h21.03.857,EPIDM,2022.2.5,None,
6260.jpg,3062.jpg,3 Points,3 Points,121 Points,PS1_L3.csv,,,,,,,,,,,,,,,,,,,,,,,,,,,,,0,2,2,2,0,2,2,2,,,,,,,,,,,,,,,,,,,372.514097458,p,0.3900317079999809,372.940714917,,,,,,,02138,A,2024-05-29_23h21.03.857,EPIDM,2022.2.5,None,
6150.jpg,2206.jpg,0 Points,0 Points,121 Points,PS1_L3.csv,,,,,,,,,,,,,,,,,,,,,,,,,,,,,0,2,2,2,0,3,3,3,,,,,,,,,,,,,,,,,,,377.20679212499994,p,0.6358637919999524,377.89916191699996,,,,,,,02138,A,2024-05-29_23h21.03.857,EPIDM,2022.2.5,None,
9300.jpg,1050.jpg,4 Points,4 Points,125 Points,PS1_L3.csv,,,,,,,,,,,,,,,,,,,,,,,,,,,,,0,2,2,2,0,4,4,4,,,,,,,,,,,,,,,,,,,382.157879292,p,0.5980434999999602,382.791023833,,,,,,,02138,A,2024-05-29_23h21.03.857,EPIDM,2022.2.5,None,
3140.jpg,3180.jpg,5 Points,5 Points,130 Points,PS1_L3.csv,,,,,,,,,,,,,,,,,,,,,,,,,,,,,0,2,2,2,0,5,5,5,,,,,,,,,,,,,,,,,,,387.0557835,q,0.1599371670000096,387.25803004200003,,,,,,,02138,A,2024-05-29_23h21.03.857,EPIDM,2022.2.5,None,
2320.jpg,2791.jpg,4 Points,4 Points,134 Points,PS1_L3.csv,,,,,,,,,,,,,,,,,,,,,,,,,,,,,0,2,2,2,0,6,6,6,,,,,,,,,,,,,,,,,,,391.526848208,p,0.399579373999984,391.956382292,,,,,,,02138,A,2024-05-29_23h21.03.857,EPIDM,2022.2.5,None,
8311.jpg,4609.jpg,2 Points,2 Points,136 Points,PS1_L3.csv,,,,,,,,,,,,,,,,,,,,,,,,,,,,,0,2,2,2,0,7,7,7,,,,,,,,,,,,,,,,,,,396.22627095799993,p,0.333300166000015,396.59445729199996,,,,,,,02138,A,2024-05-29_23h21.03.857,EPIDM,2022.2.5,None,
9042.jpg,2753.jpg,0 Points,0 Points,136 Points,PS1_L3.csv,,,,,,,,,,,,,,,,,,,,,,,,,,,,,0,2,2,2,0,8,8,8,,,,,,,,,,,,,,,,,,,400.86072637499996,p,0.38377174999999397,401.27313524999994,,,,,,,02138,A,2024-05-29_23h21.03.857,EPIDM,2022.2.5,None,
5471.jpg,4650.jpg,2 Points,2 Points,138 Points,PS1_L3.csv,,,,,,,,,,,,,,,,,,,,,,,,,,,,,0,2,2,2,0,9,9,9,,,,,,,,,,,,,,,,,,,405.5399295,q,0.25108712499996955,405.826740625,,,,,,,02138,A,2024-05-29_23h21.03.857,EPIDM,2022.2.5,None,
4302.jpg,9401.jpg,2 Points,2 Points,140 Points,PS1_L3.csv,,,,,,,,,,,,,,,,,,,,,,,,,,,,,0,2,2,2,0,10,10,10,,,,,,,,,,,,,,,,,,,410.09790683299997,p,0.16084929099991996,410.3054345,,,,,,,02138,A,2024-05-29_23h21.03.857,EPIDM,2022.2.5,None,
1610.jpg,4561.jpg,4 Points,4 Points,144 Points,PS1_L3.csv,,,,,,,,,,,,,,,,,,,,,,,,,,,,,0,2,2,2,0,11,11,11,,,,,,,,,,,,,,,,,,,414.56306649999993,p,0.31969716600002585,414.930850542,,,,,,,02138,A,2024-05-29_23h21.03.857,EPIDM,2022.2.5,None,
9405.jpg,6250.2.jpg,3 Points,3 Points,147 Points,PS1_L3.csv,,,,,,,,,,,,,,,,,,,,,,,,,,,,,0,2,2,2,0,12,12,12,,,,,,,,,,,,,,,,,,,419.19186941699996,q,0.24974166599992031,419.497629958,,,,,,,02138,A,2024-05-29_23h21.03.857,EPIDM,2022.2.5,None,
1090.jpg,4651.jpg,5 Points,5 Points,152 Points,PS1_L3.csv,,,,,,,,,,,,,,,,,,,,,,,,,,,,,0,2,2,2,0,13,13,13,,,,,,,,,,,,,,,,,,,423.75529824999995,p,0.22182166699991512,424.028090792,o,1.413151292000009,,,,,02138,A,2024-05-29_23h21.03.857,EPIDM,2022.2.5,None,
9006.jpg,3060.jpg,1 Points,1 Points,153 Points,PS1_L3.csv,,,,,,,,,,,,,,,,,,,,,,,,,,,,,0,2,2,2,0,14,14,14,,,,,,,,,,,,,,,,,,,429.735426208,p,0.4098762909999891,430.19646408299997,,,,,,,02138,A,2024-05-29_23h21.03.857,EPIDM,2022.2.5,None,
4530.jpg,7185.jpg,1 Points,1 Points,154 Points,PS1_L3.csv,,,,,,,,,,,,,,,,,,,,,,,,,,,,,0,2,2,2,0,15,15,15,,,,,,,,,,,,,,,,,,,434.447035708,p,0.13760662500004628,434.62436575,,,,,,,02138,A,2024-05-29_23h21.03.857,EPIDM,2022.2.5,None,
6550.jpg,9582.jpg,5 Points,5 Points,159 Points,PS1_L3.csv,,,,,,,,,,,,,,,,,,,,,,,,,,,,,0,2,2,2,0,16,16,16,,,,,,,,,,,,,,,,,,,438.904839083,q,0.215134374999991,439.16074075,,,,,,,02138,A,2024-05-29_23h21.03.857,EPIDM,2022.2.5,None,
4666.jpg,4210.jpg,1 Points,1 Points,160 Points,PS1_L3.csv,,,,,,,,,,,,,,,,,,,,,,,,,,,,,0,2,2,2,0,17,17,17,,,,,,,,,,,,,,,,,,,443.42059587499995,p,0.3585514160000116,443.842750125,,,,,,,02138,A,2024-05-29_23h21.03.857,EPIDM,2022.2.5,None,
4770.jpg,4275.jpg,3 Points,3 Points,163 Points,PS1_L3.csv,,,,,,,,,,,,,,,,,,,,,,,,,,,,,0,2,2,2,0,18,18,18,,,,,,,,,,,,,,,,,,,448.10866570799993,q,0.8039788330000306,448.964728,,,,,,,02138,A,2024-05-29_23h21.03.857,EPIDM,2022.2.5,None,
9594.jpg,1080.jpg,4 Points,4 Points,167 Points,PS1_L3.csv,,,,,,,,,,,,,,,,,,,,,,,,,,,,,0,2,2,2,0,19,19,19,,,,,,,,,,,,,,,,,,,453.210276792,p,0.1523342080000134,453.41289975,,,,,,,02138,A,2024-05-29_23h21.03.857,EPIDM,2022.2.5,None,
2606.jpg,2480.jpg,1 Points,1 Points,168 Points,PS1_L3.csv,,,,,,,,,,,,,,,,,,,,,,,,,,,,,0,2,2,2,0,20,20,20,,,,,,,,,,,,,,,,,,,457.675622625,q,0.11567816600000924,457.82943325,,,,,,,02138,A,2024-05-29_23h21.03.857,EPIDM,2022.2.5,None,
1052.jpg,1201.jpg,3 Points,3 Points,171 Points,PS1_L3.csv,,,,,,,,,,,,,,,,,,,,,,,,,,,,,0,2,2,2,0,21,21,21,,,,,,,,,,,,,,,,,,,462.10550541699996,q,0.710907124999892,462.854361,,,,,,,02138,A,2024-05-29_23h21.03.857,EPIDM,2022.2.5,None,
4635.jpg,3100.jpg,2 Points,2 Points,173 Points,PS1_L3.csv,,,,,,,,,,,,,,,,,,,,,,,,,,,,,0,2,2,2,0,22,22,22,,,,,,,,,,,,,,,,,,,467.132715208,q,0.2683115830000702,467.4443855,,,,,,,02138,A,2024-05-29_23h21.03.857,EPIDM,2022.2.5,None,
2620.jpg,4005.jpg,0 Points,0 Points,173 Points,PS1_L3.csv,,,,,,,,,,,,,,,,,,,,,,,,,,,,,0,2,2,2,0,23,23,23,,,,,,,,,,,,,,,,,,,471.696185458,q,0.7623357079999664,472.49991733300004,,,482.91148912499995,space,0.5255564579999259,,02138,A,2024-05-29_23h21.03.857,EPIDM,2022.2.5,None,
4290.jpg,4240.jpg,3 Points,3 Points,176 Points,PS1_L4.csv,,,,,,,,,,,,,,,,,,,,,,,,,,,,,0,3,3,3,0,0,0,0,,,,,,,,,,,,,,,,,,,486.729981042,p,0.2240950830000088,486.996870042,,,,,,,02138,A,2024-05-29_23h21.03.857,EPIDM,2022.2.5,None,
7620.jpg,5395.jpg,1 Points,1 Points,177 Points,PS1_L4.csv,,,,,,,,,,,,,,,,,,,,,,,,,,,,,0,3,3,3,0,1,1,1,,,,,,,,,,,,,,,,,,,491.26262575000004,q,0.09332824999995637,491.3971565,a,1.6956208749999746,,,,,02138,A,2024-05-29_23h21.03.857,EPIDM,2022.2.5,None,
5970.jpg,3300.jpg,0 Points,0 Points,177 Points,PS1_L4.csv,,,,,,,,,,,,,,,,,,,,,,,,,,,,,0,3,3,3,0,2,2,2,,,,,,,,,,,,,,,,,,,497.38996245799996,q,1.3118574160000094,498.73677079199996,,,,,,,02138,A,2024-05-29_23h21.03.857,EPIDM,2022.2.5,None,
5120.jpg,5520.jpg,2 Points,2 Points,179 Points,PS1_L4.csv,,,,,,,,,,,,,,,,,,,,,,,,,,,,,0,3,3,3,0,3,3,3,,,,,,,,,,,,,,,,,,,503.004940125,q,0.5899712909999266,503.630876042,,,,,,,02138,A,2024-05-29_23h21.03.857,EPIDM,2022.2.5,None,
9452.jpg,7184.jpg,4 Points,4 Points,183 Points,PS1_L4.csv,,,,,,,,,,,,,,,,,,,,,,,,,,,,,0,3,3,3,0,4,4,4,,,,,,,,,,,,,,,,,,,507.90394629199994,q,0.13484033299999965,508.075161958,,,,,,,02138,A,2024-05-29_23h21.03.857,EPIDM,2022.2.5,None,
6570.1.jpg,9432.jpg,5 Points,5 Points,188 Points,PS1_L4.csv,,,,,,,,,,,,,,,,,,,,,,,,,,,,,0,3,3,3,0,5,5,5,,,,,,,,,,,,,,,,,,,512.344066208,p,0.21416220800000474,512.5940466249999,,,,,,,02138,A,2024-05-29_23h21.03.857,EPIDM,2022.2.5,None,
2389.jpg,4750.jpg,0 Points,0 Points,188 Points,PS1_L4.csv,,,,,,,,,,,,,,,,,,,,,,,,,,,,,0,3,3,3,0,6,6,6,,,,,,,,,,,,,,,,,,,516.8603659999999,p,0.27246079200000395,517.1776917499999,,,,,,,02138,A,2024-05-29_23h21.03.857,EPIDM,2022.2.5,None,
9330.jpg,3015.jpg,5 Points,5 Points,193 Points,PS1_L4.csv,,,,,,,,,,,,,,,,,,,,,,,,,,,,,0,3,3,3,0,7,7,7,,,,,,,,,,,,,,,,,,,521.429813083,p,0.38917920800003003,521.8607186669999,,,,,,,02138,A,2024-05-29_23h21.03.857,EPIDM,2022.2.5,None,
9560.jpg,3071.jpg,1 Points,1 Points,194 Points,PS1_L4.csv,,,,,,,,,,,,,,,,,,,,,,,,,,,,,0,3,3,3,0,8,8,8,,,,,,,,,,,,,,,,,,,526.1371100419999,p,0.2933814170000346,526.472129625,,,,,,,02138,A,2024-05-29_23h21.03.857,EPIDM,2022.2.5,None,
5994.jpg,5390.jpg,0 Points,0 Points,194 Points,PS1_L4.csv,,,,,,,,,,,,,,,,,,,,,,,,,,,,,0,3,3,3,0,9,9,9,,,,,,,,,,,,,,,,,,,530.736500833,q,0.1947573740000621,530.971534792,,,,,,,02138,A,2024-05-29_23h21.03.857,EPIDM,2022.2.5,None,
2692.jpg,8231.jpg,4 Points,4 Points,198 Points,PS1_L4.csv,,,,,,,,,,,,,,,,,,,,,,,,,,,,,0,3,3,3,0,10,10,10,,,,,,,,,,,,,,,,,,,535.2379108749999,p,0.15365495800000417,535.4205039579999,,,,,,,02138,A,2024-05-29_23h21.03.857,EPIDM,2022.2.5,None,
4550.jpg,9404.jpg,5 Points,5 Points,203 Points,PS1_L4.csv,,,,,,,,,,,,,,,,,,,,,,,,,,,,,0,3,3,3,0,11,11,11,,,,,,,,,,,,,,,,,,,539.7077777919999,q,0.5833837079999853,540.324494875,,,,,,,02138,A,2024-05-29_23h21.03.857,EPIDM,2022.2.5,None,
4180.jpg,2630.jpg,0 Points,0 Points,203 Points,PS1_L4.csv,,,,,,,,,,,,,,,,,,,,,,,,,,,,,0,3,3,3,0,12,12,12,,,,,,,,,,,,,,,,,,,544.5893237079999,q,0.19056600000004664,544.832211833,,,,,,,02138,A,2024-05-29_23h21.03.857,EPIDM,2022.2.5,None,
4460.jpg,2351.jpg,2 Points,2 Points,205 Points,PS1_L4.csv,,,,,,,,,,,,,,,,,,,,,,,,,,,,,0,3,3,3,0,13,13,13,,,,,,,,,,,,,,,,,,,549.095634708,p,0.08843570799996314,549.225273042,o,1.9740985829999431,,,,,02138,A,2024-05-29_23h21.03.857,EPIDM,2022.2.5,None,
6561.jpg,1525.jpg,2 Points,2 Points,207 Points,PS1_L4.csv,,,,,,,,,,,,,,,,,,,,,,,,,,,,,0,3,3,3,0,14,14,14,,,,,,,,,,,,,,,,,,,555.520463417,p,0.3678918329999874,555.930897167,,,,,,,02138,A,2024-05-29_23h21.03.857,EPIDM,2022.2.5,None,
9070.jpg,9420.jpg,2 Points,2 Points,209 Points,PS1_L4.csv,,,,,,,,,,,,,,,,,,,,,,,,,,,,,0,3,3,3,0,15,15,15,,,,,,,,,,,,,,,,,,,560.1918557920001,p,0.29482504100002416,560.5208452500001,,,,,,,02138,A,2024-05-29_23h21.03.857,EPIDM,2022.2.5,None,
2516.jpg,8500.jpg,4 Points,4 Points,213 Points,PS1_L4.csv,,,,,,,,,,,,,,,,,,,,,,,,,,,,,0,3,3,3,0,16,16,16,,,,,,,,,,,,,,,,,,,564.7806002079999,p,0.01957520800004886,564.8592256249999,,,,,,,02138,A,2024-05-29_23h21.03.857,EPIDM,2022.2.5,None,
9140.jpg,2810.jpg,3 Points,3 Points,216 Points,PS1_L4.csv,,,,,,,,,,,,,,,,,,,,,,,,,,,,,0,3,3,3,0,17,17,17,,,,,,,,,,,,,,,,,,,569.1211713749999,q,0.09657287500004941,569.2572781250001,,,,,,,02138,A,2024-05-29_23h21.03.857,EPIDM,2022.2.5,None,
4652.jpg,4004.jpg,2 Points,2 Points,218 Points,PS1_L4.csv,,,,,,,,,,,,,,,,,,,,,,,,,,,,,0,3,3,3,0,18,18,18,,,,,,,,,,,,,,,,,,,573.5280258749999,p,0.12017404199997372,573.6915598749999,,,,,,,02138,A,2024-05-29_23h21.03.857,EPIDM,2022.2.5,None,
2661.jpg,2870.jpg,5 Points,5 Points,223 Points,PS1_L4.csv,,,,,,,,,,,,,,,,,,,,,,,,,,,,,0,3,3,3,0,19,19,19,,,,,,,,,,,,,,,,,,,577.954926917,p,1.648326582999914,579.6401150419999,,,,,,,02138,A,2024-05-29_23h21.03.857,EPIDM,2022.2.5,None,
6010.jpg,7361.jpg,2 Points,2 Points,225 Points,PS1_L4.csv,,,,,,,,,,,,,,,,,,,,,,,,,,,,,0,3,3,3,0,20,20,20,,,,,,,,,,,,,,,,,,,583.9061355829999,p,0.6270897920000493,584.573041458,,,,,,,02138,A,2024-05-29_23h21.03.857,EPIDM,2022.2.5,None,
4220.jpg,4534.jpg,0 Points,0 Points,225 Points,PS1_L4.csv,,,,,,,,,,,,,,,,,,,,,,,,,,,,,0,3,3,3,0,21,21,21,,,,,,,,,,,,,,,,,,,588.840384333,q,0.6492067080000083,589.527879875,,,,,,,02138,A,2024-05-29_23h21.03.857,EPIDM,2022.2.5,None,
1310.jpg,3181.jpg,4 Points,4 Points,229 Points,PS1_L4.csv,,,,,,,,,,,,,,,,,,,,,,,,,,,,,0,3,3,3,0,22,22,22,,,,,,,,,,,,,,,,,,,593.78597825,q,0.2399456659999828,594.0721114999999,,,,,,,02138,A,2024-05-29_23h21.03.857,EPIDM,2022.2.5,None,
2383.jpg,1616.jpg,2 Points,2 Points,231 Points,PS1_L4.csv,,,,,,,,,,,,,,,,,,,,,,,,,,,,,0,3,3,3,0,23,23,23,,,,,,,,,,,,,,,,,,,598.330176125,q,0.19757245800002465,598.577044333,,,608.95546575,space,1.6632619579999641,,02138,A,2024-05-29_23h21.03.857,EPIDM,2022.2.5,None,
4510.jpg,4659.jpg,5 Points,5 Points,236 Points,PS1_L5.csv,,,,,,,,,,,,,,,,,,,,,,,,,,,,,0,4,4,4,0,0,0,0,,,,,,,,,,,,,,,,,,,613.920798292,p,0.18870591600006037,614.161900667,,,,,,,02138,A,2024-05-29_23h21.03.857,EPIDM,2022.2.5,None,
2730.jpg,1051.jpg,0 Points,0 Points,236 Points,PS1_L5.csv,,,,,,,,,,,,,,,,,,,,,,,,,,,,,0,4,4,4,0,1,1,1,,,,,,,,,,,,,,,,,,,618.4219384170001,q,0.6412638749999928,619.1068360419999,o,2.668771749999962,,,,,02138,A,2024-05-29_23h21.03.857,EPIDM,2022.2.5,None,
7002.jpg,4660.jpg,4 Points,4 Points,240 Points,PS1_L5.csv,,,,,,,,,,,,,,,,,,,,,,,,,,,,,0,4,4,4,0,2,2,2,,,,,,,,,,,,,,,,,,,626.0747160829999,p,0.7637626249999698,626.8830942499999,,,,,,,02138,A,2024-05-29_23h21.03.857,EPIDM,2022.2.5,None,
2900.jpg,1101.jpg,3 Points,3 Points,243 Points,PS1_L5.csv,,,,,,,,,,,,,,,,,,,,,,,,,,,,,0,4,4,4,0,3,3,3,,,,,,,,,,,,,,,,,,,631.1424487500001,p,0.37192983299991056,631.5649719170001,,,,,,,02138,A,2024-05-29_23h21.03.857,EPIDM,2022.2.5,None,
2485.jpg,7350.jpg,0 Points,0 Points,243 Points,PS1_L5.csv,,,,,,,,,,,,,,,,,,,,,,,,,,,,,0,4,4,4,0,4,4,4,,,,,,,,,,,,,,,,,,,635.825801125,p,0.21996866599994291,636.0934050000001,,,,,,,02138,A,2024-05-29_23h21.03.857,EPIDM,2022.2.5,None,
6242.jpg,3261.jpg,4 Points,4 Points,247 Points,PS1_L5.csv,,,,,,,,,,,,,,,,,,,,,,,,,,,,,0,4,4,4,0,5,5,5,,,,,,,,,,,,,,,,,,,640.3492324169999,q,0.18415108300001748,640.576667667,,,,,,,02138,A,2024-05-29_23h21.03.857,EPIDM,2022.2.5,None,
3170.jpg,6560.jpg,2 Points,2 Points,249 Points,PS1_L5.csv,,,,,,,,,,,,,,,,,,,,,,,,,,,,,0,4,4,4,0,6,6,6,,,,,,,,,,,,,,,,,,,644.8257376669999,q,0.4621601660000465,645.316094083,,,,,,,02138,A,2024-05-29_23h21.03.857,EPIDM,2022.2.5,None,
4683.jpg,7270.jpg,3 Points,3 Points,252 Points,PS1_L5.csv,,,,,,,,,,,,,,,,,,,,,,,,,,,,,0,4,4,4,0,7,7,7,,,,,,,,,,,,,,,,,,,649.589940417,p,1.1888549580000358,650.826834833,,,,,,,02138,A,2024-05-29_23h21.03.857,EPIDM,2022.2.5,None,
2597.jpg,5870.jpg,5 Points,5 Points,257 Points,PS1_L5.csv,,,,,,,,,,,,,,,,,,,,,,,,,,,,,0,4,4,4,0,8,8,8,,,,,,,,,,,,,,,,,,,655.0839595,q,0.296338832999993,655.4327185,,,,,,,02138,A,2024-05-29_23h21.03.857,EPIDM,2022.2.5,None,
6312.jpg,3230.jpg,2 Points,2 Points,259 Points,PS1_L5.csv,,,,,,,,,,,,,,,,,,,,,,,,,,,,,0,4,4,4,0,9,9,9,,,,,,,,,,,,,,,,,,,659.7028701250001,p,0.5206638329999009,660.273942708,,,,,,,02138,A,2024-05-29_23h21.03.857,EPIDM,2022.2.5,None,
3130.jpg,3500.jpg,4 Points,4 Points,263 Points,PS1_L5.csv,,,,,,,,,,,,,,,,,,,,,,,,,,,,,0,4,4,4,0,10,10,10,,,,,,,,,,,,,,,,,,,664.528652167,q,1.1477963740001655,665.713812833,,,,,,,02138,A,2024-05-29_23h21.03.857,EPIDM,2022.2.5,None,
2749.jpg,7282.jpg,3 Points,3 Points,266 Points,PS1_L5.csv,,,,,,,,,,,,,,,,,,,,,,,,,,,,,0,4,4,4,0,11,11,11,,,,,,,,,,,,,,,,,,,669.9858850420001,p,0.6518444579999709,670.681027958,,,,,,,02138,A,2024-05-29_23h21.03.857,EPIDM,2022.2.5,None,
5300.jpg,2372.jpg,1 Points,1 Points,267 Points,PS1_L5.csv,,,,,,,,,,,,,,,,,,,,,,,,,,,,,0,4,4,4,0,12,12,12,,,,,,,,,,,,,,,,,,,674.9397833330002,q,0.8687938749999944,675.853566708,,,,,,,02138,A,2024-05-29_23h21.03.857,EPIDM,2022.2.5,None,
6510.jpg,4664.2.jpg,2 Points,2 Points,269 Points,PS1_L5.csv,,,,,,,,,,,,,,,,,,,,,,,,,,,,,0,4,4,4,0,13,13,13,,,,,,,,,,,,,,,,,,,680.108833,p,0.7493584580000174,680.9046170420002,o,3.8816587919998824,,,,,02138,A,2024-05-29_23h21.03.857,EPIDM,2022.2.5,None,
2260.jpg,2830.jpg,5 Points,5 Points,274 Points,PS1_L5.csv,,,,,,,,,,,,,,,,,,,,,,,,,,,,,0,4,4,4,0,14,14,14,,,,,,,,,,,,,,,,,,,689.0913560420001,p,0.6148289579999187,689.748828708,,,,,,,02138,A,2024-05-29_23h21.03.857,EPIDM,2022.2.5,None,
2710.jpg,9252.jpg,1 Points,1 Points,275 Points,PS1_L5.csv,,,,,,,,,,,,,,,,,,,,,,,,,,,,,0,4,4,4,0,15,15,15,,,,,,,,,,,,,,,,,,,694.0150901670002,q,0.3602382910001438,694.415550083,,,,,,,02138,A,2024-05-29_23h21.03.857,EPIDM,2022.2.5,None,
3064.jpg,3168.jpg,4 Points,4 Points,279 Points,PS1_L5.csv,,,,,,,,,,,,,,,,,,,,,,,,,,,,,0,4,4,4,0,16,16,16,,,,,,,,,,,,,,,,,,,698.6751987080002,p,0.0994838330000789,698.8111162499999,,,,,,,02138,A,2024-05-29_23h21.03.857,EPIDM,2022.2.5,None,
1640.jpg,5531.jpg,3 Points,3 Points,282 Points,PS1_L5.csv,,,,,,,,,,,,,,,,,,,,,,,,,,,,,0,4,4,4,0,17,17,17,,,,,,,,,,,,,,,,,,,703.0717252920001,p,0.18233783299984907,703.3020528330001,,,,,,,02138,A,2024-05-29_23h21.03.857,EPIDM,2022.2.5,None,
3530.jpg,6213.jpg,1 Points,1 Points,283 Points,PS1_L5.csv,,,,,,,,,,,,,,,,,,,,,,,,,,,,,0,4,4,4,0,18,18,18,,,,,,,,,,,,,,,,,,,707.5614504580001,p,0.1592675830000303,707.759298292,,,,,,,02138,A,2024-05-29_23h21.03.857,EPIDM,2022.2.5,None,
9090.jpg,7580.jpg,3 Points,3 Points,286 Points,PS1_L5.csv,,,,,,,,,,,,,,,,,,,,,,,,,,,,,0,4,4,4,0,19,19,19,,,,,,,,,,,,,,,,,,,712.02836,p,0.4874712920000661,712.5546245830001,,,,,,,02138,A,2024-05-29_23h21.03.857,EPIDM,2022.2.5,None,
8230.jpg,2682.jpg,5 Points,5 Points,291 Points,PS1_L5.csv,,,,,,,,,,,,,,,,,,,,,,,,,,,,,0,4,4,4,0,20,20,20,,,,,,,,,,,,,,,,,,,716.8205279169999,q,0.18505295799997157,717.0510785000001,,,,,,,02138,A,2024-05-29_23h21.03.857,EPIDM,2022.2.5,None,
9592.jpg,1300.jpg,2 Points,2 Points,293 Points,PS1_L5.csv,,,,,,,,,,,,,,,,,,,,,,,,,,,,,0,4,4,4,0,21,21,21,,,,,,,,,,,,,,,,,,,721.320666958,q,0.34142012500007013,721.7030842500001,,,,,,,02138,A,2024-05-29_23h21.03.857,EPIDM,2022.2.5,None,
2490.jpg,2590.jpg,4 Points,4 Points,297 Points,PS1_L5.csv,,,,,,,,,,,,,,,,,,,,,,,,,,,,,0,4,4,4,0,22,22,22,,,,,,,,,,,,,,,,,,,725.9853524580001,p,0.3336447489999159,726.3557572080001,,,,,,,02138,A,2024-05-29_23h21.03.857,EPIDM,2022.2.5,None,
2190.jpg,4656.jpg,2 Points,2 Points,299 Points,PS1_L5.csv,,,,,,,,,,,,,,,,,,,,,,,,,,,,,0,4,4,4,0,23,23,23,,,,,,,,,,,,,,,,,,,730.6114265830001,q,0.44627800000017714,731.111900458,,,741.485890292,space,5.907775749999985,,02138,A,2024-05-29_23h21.03.857,EPIDM,2022.2.5,None,
1930.jpg,9008.jpg,1 Points,1 Points,300 Points,PS1_L6.csv,,,,,,,,,,,,,,,,,,,,,,,,,,,,,0,5,5,5,0,0,0,0,,,,,,,,,,,,,,,,,,,750.69935225,None,,,,,,,,754.402641917,02138,A,2024-05-29_23h21.03.857,EPIDM,2022.2.5,None,
4613.jpg,2720.jpg,4 Points,4 Points,304 Points,PS1_L6.csv,,,,,,,,,,,,,,,,,,,,,,,,,,,,,0,5,5,5,0,1,1,1,,,,,,,,,,,,,,,,,,,758.200927292,q,0.779137374999948,759.02096925,a,3.270491125000092,,,,,02138,A,2024-05-29_23h21.03.857,EPIDM,2022.2.5,None,
3280.jpg,9270.jpg,0 Points,0 Points,304 Points,PS1_L6.csv,,,,,,,,,,,,,,,,,,,,,,,,,,,,,0,5,5,5,0,2,2,2,,,,,,,,,,,,,,,,,,,766.579549417,q,1.0578294170000504,767.6687515000001,,,,,,,02138,A,2024-05-29_23h21.03.857,EPIDM,2022.2.5,None,
6800.jpg,9190.jpg,0 Points,0 Points,304 Points,PS1_L6.csv,,,,,,,,,,,,,,,,,,,,,,,,,,,,,0,5,5,5,0,3,3,3,,,,,,,,,,,,,,,,,,,771.9530467920001,q,0.03268991599981064,772.0188967500001,,,,,,,02138,A,2024-05-29_23h21.03.857,EPIDM,2022.2.5,None,
5600.jpg,9080.jpg,5 Points,5 Points,309 Points,PS1_L6.csv,,,,,,,,,,,,,,,,,,,,,,,,,,,,,0,5,5,5,0,4,4,4,,,,,,,,,,,,,,,,,,,776.290550292,p,0.18549070799991796,776.5322699580001,,,,,,,02138,A,2024-05-29_23h21.03.857,EPIDM,2022.2.5,None,
9005.jpg,9041.jpg,4 Points,4 Points,313 Points,PS1_L6.csv,,,,,,,,,,,,,,,,,,,,,,,,,,,,,0,5,5,5,0,5,5,5,,,,,,,,,,,,,,,,,,,780.776889125,q,0.8842047500000376,781.71014225,,,,,,,02138,A,2024-05-29_23h21.03.857,EPIDM,2022.2.5,None,
5200.jpg,5020.jpg,0 Points,0 Points,313 Points,PS1_L6.csv,,,,,,,,,,,,,,,,,,,,,,,,,,,,,0,5,5,5,0,6,6,6,,,,,,,,,,,,,,,,,,,785.9865380830001,p,0.07200774999984105,786.0970084580001,,,,,,,02138,A,2024-05-29_23h21.03.857,EPIDM,2022.2.5,None,
1850.jpg,5623.jpg,5 Points,5 Points,318 Points,PS1_L6.csv,,,,,,,,,,,,,,,,,,,,,,,,,,,,,0,5,5,5,0,7,7,7,,,,,,,,,,,,,,,,,,,790.3745665420001,p,0.8206015829999274,791.2438144170001,,,,,,,02138,A,2024-05-29_23h21.03.857,EPIDM,2022.2.5,None,
9440.jpg,6350.jpg,4 Points,4 Points,322 Points,PS1_L6.csv,,,,,,,,,,,,,,,,,,,,,,,,,,,,,0,5,5,5,0,8,8,8,,,,,,,,,,,,,,,,,,,795.5047119580001,p,1.2595480409998459,796.8002034170001,,,,,,,02138,A,2024-05-29_23h21.03.857,EPIDM,2022.2.5,None,
5990.jpg,5780.jpg,3 Points,3 Points,325 Points,PS1_L6.csv,,,,,,,,,,,,,,,,,,,,,,,,,,,,,0,5,5,5,0,9,9,9,,,,,,,,,,,,,,,,,,,801.061451625,q,0.08484529200001134,801.18731675,,,,,,,02138,A,2024-05-29_23h21.03.857,EPIDM,2022.2.5,None,
6244.jpg,9265.jpg,0 Points,0 Points,325 Points,PS1_L6.csv,,,,,,,,,,,,,,,,,,,,,,,,,,,,,0,5,5,5,0,10,10,10,,,,,,,,,,,,,,,,,,,805.450577333,p,0.7466652920000456,806.2375643750001,,,,,,,02138,A,2024-05-29_23h21.03.857,EPIDM,2022.2.5,None,
5000.jpg,8180.jpg,4 Points,4 Points,329 Points,PS1_L6.csv,,,,,,,,,,,,,,,,,,,,,,,,,,,,,0,5,5,5,0,11,11,11,,,,,,,,,,,,,,,,,,,810.5109870000001,p,0.6668087920000403,811.2178133750001,,,,,,,02138,A,2024-05-29_23h21.03.857,EPIDM,2022.2.5,None,
5982.jpg,5260.jpg,1 Points,1 Points,330 Points,PS1_L6.csv,,,,,,,,,,,,,,,,,,,,,,,,,,,,,0,5,5,5,0,12,12,12,,,,,,,,,,,,,,,,,,,815.4858205,q,0.016069415999993453,815.54621875,,,,,,,02138,A,2024-05-29_23h21.03.857,EPIDM,2022.2.5,None,
1301.jpg,1070.jpg,2 Points,2 Points,332 Points,PS1_L6.csv,,,,,,,,,,,,,,,,,,,,,,,,,,,,,0,5,5,5,0,13,13,13,,,,,,,,,,,,,,,,,,,819.8021055419999,q,0.3728682499998399,820.216815708,o,1.4311981240001046,,,,,02138,A,2024-05-29_23h21.03.857,EPIDM,2022.2.5,None,
7920.jpg,9102.jpg,3 Points,3 Points,335 Points,PS1_L6.csv,,,,,,,,,,,,,,,,,,,,,,,,,,,,,0,5,5,5,0,14,14,14,,,,,,,,,,,,,,,,,,,825.9432837080001,p,0.33893399899994847,826.3308175,,,,,,,02138,A,2024-05-29_23h21.03.857,EPIDM,2022.2.5,None,
5455.jpg,5220.jpg,0 Points,0 Points,335 Points,PS1_L6.csv,,,,,,,,,,,,,,,,,,,,,,,,,,,,,0,5,5,5,0,15,15,15,,,,,,,,,,,,,,,,,,,830.587562333,p,0.4668512910000686,831.092194333,,,,,,,02138,A,2024-05-29_23h21.03.857,EPIDM,2022.2.5,None,
3350.jpg,3210.jpg,1 Points,1 Points,336 Points,PS1_L6.csv,,,,,,,,,,,,,,,,,,,,,,,,,,,,,0,5,5,5,0,16,16,16,,,,,,,,,,,,,,,,,,,835.3593015829999,q,1.1047988329999612,836.4921111250001,,,,,,,02138,A,2024-05-29_23h21.03.857,EPIDM,2022.2.5,None,
2560.jpg,5270.jpg,4 Points,4 Points,340 Points,PS1_L6.csv,,,,,,,,,,,,,,,,,,,,,,,,,,,,,0,5,5,5,0,17,17,17,,,,,,,,,,,,,,,,,,,840.770965125,p,0.3562587079998707,841.1620907500001,,,,,,,02138,A,2024-05-29_23h21.03.857,EPIDM,2022.2.5,None,
9584.jpg,3400.jpg,2 Points,2 Points,342 Points,PS1_L6.csv,,,,,,,,,,,,,,,,,,,,,,,,,,,,,0,5,5,5,0,18,18,18,,,,,,,,,,,,,,,,,,,845.439228667,q,0.03902262499997278,845.5216575,,,,,,,02138,A,2024-05-29_23h21.03.857,EPIDM,2022.2.5,None,
5760.jpg,1602.jpg,1 Points,1 Points,343 Points,PS1_L6.csv,,,,,,,,,,,,,,,,,,,,,,,,,,,,,0,5,5,5,0,19,19,19,,,,,,,,,,,,,,,,,,,849.7756505,p,0.2662143329999367,850.0778351250001,,,,,,,02138,A,2024-05-29_23h21.03.857,EPIDM,2022.2.5,None,
7230.jpg,7570.jpg,5 Points,5 Points,348 Points,PS1_L6.csv,,,,,,,,,,,,,,,,,,,,,,,,,,,,,0,5,5,5,0,20,20,20,,,,,,,,,,,,,,,,,,,854.344090667,q,1.0957335410001292,855.4844510830001,,,,,,,02138,A,2024-05-29_23h21.03.857,EPIDM,2022.2.5,None,
1022.jpg,6930.jpg,1 Points,1 Points,349 Points,PS1_L6.csv,,,,,,,,,,,,,,,,,,,,,,,,,,,,,0,5,5,5,0,21,21,21,,,,,,,,,,,,,,,,,,,859.7338010830001,p,0.897525041999927,860.676856417,,,,,,,02138,A,2024-05-29_23h21.03.857,EPIDM,2022.2.5,None,
8340.jpg,7546.jpg,2 Points,2 Points,351 Points,PS1_L6.csv,,,,,,,,,,,,,,,,,,,,,,,,,,,,,0,5,5,5,0,22,22,22,,,,,,,,,,,,,,,,,,,864.9515699170001,q,0.16227858300004527,865.1589632079999,,,,,,,02138,A,2024-05-29_23h21.03.857,EPIDM,2022.2.5,None,
6243.jpg,2752.jpg,2 Points,2 Points,353 Points,PS1_L6.csv,,,,,,,,,,,,,,,,,,,,,,,,,,,,,0,5,5,5,0,23,23,23,,,,,,,,,,,,,,,,,,,869.42587475,q,3.299008790999835,872.767379958,,,883.1314910420001,space,3.3747042910000005,,02138,A,2024-05-29_23h21.03.857,EPIDM,2022.2.5,None,
7280.jpg,7160.jpg,0 Points,0 Points,353 Points,PS1_L7.csv,,,,,,,,,,,,,,,,,,,,,,,,,,,,,0,6,6,6,0,0,0,0,,,,,,,,,,,,,,,,,,,889.8083045830001,p,1.0034951660000502,890.863216208,,,,,,,02138,A,2024-05-29_23h21.03.857,EPIDM,2022.2.5,None,
2580.jpg,8300.jpg,3 Points,3 Points,356 Points,PS1_L7.csv,,,,,,,,,,,,,,,,,,,,,,,,,,,,,0,6,6,6,0,1,1,1,,,,,,,,,,,,,,,,,,,895.109160667,q,0.6473788330000048,895.805432458,o,2.494489291999855,,,,,02138,A,2024-05-29_23h21.03.857,EPIDM,2022.2.5,None,
5972.jpg,6838.jpg,5 Points,5 Points,361 Points,PS1_L7.csv,,,,,,,,,,,,,,,,,,,,,,,,,,,,,0,6,6,6,0,2,2,2,,,,,,,,,,,,,,,,,,,902.6020968330001,p,1.5459997489998045,904.183490917,,,,,,,02138,A,2024-05-29_23h21.03.857,EPIDM,2022.2.5,None,
5621.jpg,5534.jpg,3 Points,3 Points,364 Points,PS1_L7.csv,,,,,,,,,,,,,,,,,,,,,,,,,,,,,0,6,6,6,0,3,3,3,,,,,,,,,,,,,,,,,,,908.4527237500001,p,0.4752924160000589,908.978826,,,,,,,02138,A,2024-05-29_23h21.03.857,EPIDM,2022.2.5,None,
8480.jpg,6410.jpg,1 Points,1 Points,365 Points,PS1_L7.csv,,,,,,,,,,,,,,,,,,,,,,,,,,,,,0,6,6,6,0,4,4,4,,,,,,,,,,,,,,,,,,,913.235387167,p,0.07429149900013954,913.3449390830001,,,,,,,02138,A,2024-05-29_23h21.03.857,EPIDM,2022.2.5,None,
2702.jpg,1590.jpg,5 Points,5 Points,370 Points,PS1_L7.csv,,,,,,,,,,,,,,,,,,,,,,,,,,,,,0,6,6,6,0,5,5,5,,,,,,,,,,,,,,,,,,,917.6087634580001,q,0.11825624900012599,917.77176375,,,,,,,02138,A,2024-05-29_23h21.03.857,EPIDM,2022.2.5,None,
1275.jpg,3150.jpg,1 Points,1 Points,371 Points,PS1_L7.csv,,,,,,,,,,,,,,,,,,,,,,,,,,,,,0,6,6,6,0,6,6,6,,,,,,,,,,,,,,,,,,,922.0239125830001,p,0.04752358299998605,922.1266082920001,,,,,,,02138,A,2024-05-29_23h21.03.857,EPIDM,2022.2.5,None,
1910.jpg,2575.jpg,2 Points,2 Points,373 Points,PS1_L7.csv,,,,,,,,,,,,,,,,,,,,,,,,,,,,,0,6,6,6,0,7,7,7,,,,,,,,,,,,,,,,,,,926.3880335000001,q,0.0036564160000693846,926.4351349170001,,,,,,,02138,A,2024-05-29_23h21.03.857,EPIDM,2022.2.5,None,
2518.jpg,2381.jpg,4 Points,4 Points,377 Points,PS1_L7.csv,,,,,,,,,,,,,,,,,,,,,,,,,,,,,0,6,6,6,0,8,8,8,,,,,,,,,,,,,,,,,,,930.7106328750001,q,0.13387266700016198,930.8865694170001,,,,,,,02138,A,2024-05-29_23h21.03.857,EPIDM,2022.2.5,None,
6250.1.jpg,3301.jpg,0 Points,0 Points,377 Points,PS1_L7.csv,,,,,,,,,,,,,,,,,,,,,,,,,,,,,0,6,6,6,0,9,9,9,,,,,,,,,,,,,,,,,,,935.160792833,p,0.154757082999879,935.3550438330001,,,,,,,02138,A,2024-05-29_23h21.03.857,EPIDM,2022.2.5,None,
7234.jpg,5533.jpg,3 Points,3 Points,380 Points,PS1_L7.csv,,,,,,,,,,,,,,,,,,,,,,,,,,,,,0,6,6,6,0,10,10,10,,,,,,,,,,,,,,,,,,,939.6128833330001,p,0.03709191600006534,939.7089880420001,,,,,,,02138,A,2024-05-29_23h21.03.857,EPIDM,2022.2.5,None,
9920.jpg,3068.jpg,5 Points,5 Points,385 Points,PS1_L7.csv,,,,,,,,,,,,,,,,,,,,,,,,,,,,,0,6,6,6,0,11,11,11,,,,,,,,,,,,,,,,,,,943.9711300420001,q,0.22812829100013232,944.2342678750001,,,,,,,02138,A,2024-05-29_23h21.03.857,EPIDM,2022.2.5,None,
3022.jpg,2352.2.jpg,1 Points,1 Points,386 Points,PS1_L7.csv,,,,,,,,,,,,,,,,,,,,,,,,,,,,,0,6,6,6,0,12,12,12,,,,,,,,,,,,,,,,,,,948.4915344579999,p,0.5700477910000359,949.0995000830001,,,,,,,02138,A,2024-05-29_23h21.03.857,EPIDM,2022.2.5,None,
8250.jpg,1313.jpg,4 Points,4 Points,390 Points,PS1_L7.csv,,,,,,,,,,,,,,,,,,,,,,,,,,,,,0,6,6,6,0,13,13,13,,,,,,,,,,,,,,,,,,,953.38588125,q,0.05581670799989524,953.486698708,o,1.0242094159999056,,,,,02138,A,2024-05-29_23h21.03.857,EPIDM,2022.2.5,None,
2690.jpg,9360.jpg,1 Points,1 Points,391 Points,PS1_L7.csv,,,,,,,,,,,,,,,,,,,,,,,,,,,,,0,6,6,6,0,14,14,14,,,,,,,,,,,,,,,,,,,958.8212920000001,p,0.8188001250001093,959.682588208,,,,,,,02138,A,2024-05-29_23h21.03.857,EPIDM,2022.2.5,None,
9570.jpg,6610.jpg,0 Points,0 Points,391 Points,PS1_L7.csv,,,,,,,,,,,,,,,,,,,,,,,,,,,,,0,6,6,6,0,15,15,15,,,,,,,,,,,,,,,,,,,963.9557526670001,q,0.22980295799976602,964.2298738750001,,,,,,,02138,A,2024-05-29_23h21.03.857,EPIDM,2022.2.5,None,
3110.jpg,9000.jpg,4 Points,4 Points,395 Points,PS1_L7.csv,,,,,,,,,,,,,,,,,,,,,,,,,,,,,0,6,6,6,0,16,16,16,,,,,,,,,,,,,,,,,,,968.481141125,p,0.11902800000012803,968.632543792,,,,,,,02138,A,2024-05-29_23h21.03.857,EPIDM,2022.2.5,None,
8465.jpg,8400.jpg,1 Points,1 Points,396 Points,PS1_L7.csv,,,,,,,,,,,,,,,,,,,,,,,,,,,,,0,6,6,6,0,17,17,17,,,,,,,,,,,,,,,,,,,972.8985702919999,q,0.11345566599999302,973.051873458,,,,,,,02138,A,2024-05-29_23h21.03.857,EPIDM,2022.2.5,None,
1540.jpg,2600.jpg,0 Points,0 Points,396 Points,PS1_L7.csv,,,,,,,,,,,,,,,,,,,,,,,,,,,,,0,6,6,6,0,18,18,18,,,,,,,,,,,,,,,,,,,977.3088440000001,p,0.6940304160000892,978.053104583,,,,,,,02138,A,2024-05-29_23h21.03.857,EPIDM,2022.2.5,None,
2276.jpg,6540.jpg,3 Points,3 Points,399 Points,PS1_L7.csv,,,,,,,,,,,,,,,,,,,,,,,,,,,,,0,6,6,6,0,19,19,19,,,,,,,,,,,,,,,,,,,982.319553583,q,1.4245375409998928,983.7826735420001,,,,,,,02138,A,2024-05-29_23h21.03.857,EPIDM,2022.2.5,None,
5030.jpg,1670.jpg,3 Points,3 Points,402 Points,PS1_L7.csv,,,,,,,,,,,,,,,,,,,,,,,,,,,,,0,6,6,6,0,20,20,20,,,,,,,,,,,,,,,,,,,988.046290792,p,0.3276766239999347,988.4034388750001,,,,,,,02138,A,2024-05-29_23h21.03.857,EPIDM,2022.2.5,None,
9040.jpg,1120.jpg,3 Points,3 Points,405 Points,PS1_L7.csv,,,,,,,,,,,,,,,,,,,,,,,,,,,,,0,6,6,6,0,21,21,21,,,,,,,,,,,,,,,,,,,992.674073917,q,0.16568645800003878,992.869025167,,,,,,,02138,A,2024-05-29_23h21.03.857,EPIDM,2022.2.5,None,
3220.jpg,3063.jpg,5 Points,5 Points,410 Points,PS1_L7.csv,,,,,,,,,,,,,,,,,,,,,,,,,,,,,0,6,6,6,0,22,22,22,,,,,,,,,,,,,,,,,,,997.139530375,p,0.2985634159998085,997.479188,,,,,,,02138,A,2024-05-29_23h21.03.857,EPIDM,2022.2.5,None,
8117.jpg,2880.jpg,5 Points,5 Points,415 Points,PS1_L7.csv,,,,,,,,,,,,,,,,,,,,,,,,,,,,,0,6,6,6,0,23,23,23,,,,,,,,,,,,,,,,,,,1001.7517104170001,q,1.1332071249999558,1002.9256202920001,,,1013.2893529170001,space,0.4175073739998538,,02138,A,2024-05-29_23h21.03.857,EPIDM,2022.2.5,None,
4274.jpg,8160.jpg,2 Points,2 Points,417 Points,PS1_L8.csv,,,,,,,,,,,,,,,,,,,,,,,,,,,,,0,7,7,7,0,0,0,0,,,,,,,,,,,,,,,,,,,1017.0062937499999,q,0.4545759999999177,1017.5014966250001,,,,,,,02138,A,2024-05-29_23h21.03.857,EPIDM,2022.2.5,None,
6314.jpg,9045.jpg,2 Points,2 Points,419 Points,PS1_L8.csv,,,,,,,,,,,,,,,,,,,,,,,,,,,,,0,7,7,7,0,1,1,1,,,,,,,,,,,,,,,,,,,1021.7686349170001,p,0.20988541599996324,1022.011420375,a,1.4243872909999595,,,,,02138,A,2024-05-29_23h21.03.857,EPIDM,2022.2.5,None,
1560.jpg,8185.jpg,0 Points,0 Points,419 Points,PS1_L8.csv,,,,,,,,,,,,,,,,,,,,,,,,,,,,,0,7,7,7,0,2,2,2,,,,,,,,,,,,,,,,,,,1027.751401042,q,0.29699533299987024,1028.0853656250001,,,,,,,02138,A,2024-05-29_23h21.03.857,EPIDM,2022.2.5,None,
2850.jpg,4532.jpg,3 Points,3 Points,422 Points,PS1_L8.csv,,,,,,,,,,,,,,,,,,,,,,,,,,,,,0,7,7,7,0,3,3,3,,,,,,,,,,,,,,,,,,,1032.339897,p,0.11174762399997462,1032.484098542,,,,,,,02138,A,2024-05-29_23h21.03.857,EPIDM,2022.2.5,None,
1390.jpg,9421.jpg,2 Points,2 Points,424 Points,PS1_L8.csv,,,,,,,,,,,,,,,,,,,,,,,,,,,,,0,7,7,7,0,4,4,4,,,,,,,,,,,,,,,,,,,1036.7480237500001,q,0.08954841599990004,1036.873998417,,,,,,,02138,A,2024-05-29_23h21.03.857,EPIDM,2022.2.5,None,
9800.jpg,9433.jpg,1 Points,1 Points,425 Points,PS1_L8.csv,,,,,,,,,,,,,,,,,,,,,,,,,,,,,0,7,7,7,0,5,5,5,,,,,,,,,,,,,,,,,,,1041.136913375,p,0.0682503329999804,1041.2599413750002,,,,,,,02138,A,2024-05-29_23h21.03.857,EPIDM,2022.2.5,None,
8161.jpg,1900.jpg,4 Points,4 Points,429 Points,PS1_L8.csv,,,,,,,,,,,,,,,,,,,,,,,,,,,,,0,7,7,7,0,6,6,6,,,,,,,,,,,,,,,,,,,1045.521369375,q,0.024165249999953176,1045.581695667,,,,,,,02138,A,2024-05-29_23h21.03.857,EPIDM,2022.2.5,None,
4230.jpg,6230.jpg,3 Points,3 Points,432 Points,PS1_L8.csv,,,,,,,,,,,,,,,,,,,,,,,,,,,,,0,7,7,7,0,7,7,7,,,,,,,,,,,,,,,,,,,1049.851384708,p,0.05525758300001371,1049.944678458,,,,,,,02138,A,2024-05-29_23h21.03.857,EPIDM,2022.2.5,None,
1111.jpg,1040.jpg,0 Points,0 Points,432 Points,PS1_L8.csv,,,,,,,,,,,,,,,,,,,,,,,,,,,,,0,7,7,7,0,8,8,8,,,,,,,,,,,,,,,,,,,1054.213975333,q,0.32252333299999236,1054.578138667,,,,,,,02138,A,2024-05-29_23h21.03.857,EPIDM,2022.2.5,None,
5622.jpg,4300.jpg,4 Points,4 Points,436 Points,PS1_L8.csv,,,,,,,,,,,,,,,,,,,,,,,,,,,,,0,7,7,7,0,9,9,9,,,,,,,,,,,,,,,,,,,1058.847871875,p,0.6052756249999334,1059.5104329170001,,,,,,,02138,A,2024-05-29_23h21.03.857,EPIDM,2022.2.5,None,
2681.jpg,7100.jpg,3 Points,3 Points,439 Points,PS1_L8.csv,,,,,,,,,,,,,,,,,,,,,,,,,,,,,0,7,7,7,0,10,10,10,,,,,,,,,,,,,,,,,,,1063.765724917,q,1.7116280410000968,1065.519217083,,,,,,,02138,A,2024-05-29_23h21.03.857,EPIDM,2022.2.5,None,
6821.jpg,9622.jpg,2 Points,2 Points,441 Points,PS1_L8.csv,,,,,,,,,,,,,,,,,,,,,,,,,,,,,0,7,7,7,0,11,11,11,,,,,,,,,,,,,,,,,,,1069.783065542,p,0.23450804100008327,1070.0518915,,,,,,,02138,A,2024-05-29_23h21.03.857,EPIDM,2022.2.5,None,
9490.jpg,9210.jpg,1 Points,1 Points,442 Points,PS1_L8.csv,,,,,,,,,,,,,,,,,,,,,,,,,,,,,0,7,7,7,0,12,12,12,,,,,,,,,,,,,,,,,,,1074.320089667,q,0.3675873330001309,1074.72599775,,,,,,,02138,A,2024-05-29_23h21.03.857,EPIDM,2022.2.5,None,
4605.jpg,1510.jpg,4 Points,4 Points,446 Points,PS1_L8.csv,,,,,,,,,,,,,,,,,,,,,,,,,,,,,0,7,7,7,0,13,13,13,,,,,,,,,,,,,,,,,,,1078.99397775,p,0.21761037500010616,1079.252424875,o,3.695242499000017,,,,,02138,A,2024-05-29_23h21.03.857,EPIDM,2022.2.5,None,
2240.jpg,5010.jpg,5 Points,5 Points,451 Points,PS1_L8.csv,,,,,,,,,,,,,,,,,,,,,,,,,,,,,0,7,7,7,0,14,14,14,,,,,,,,,,,,,,,,,,,1087.233426458,p,1.4605396669999777,1088.740217708,,,,,,,02138,A,2024-05-29_23h21.03.857,EPIDM,2022.2.5,None,
3102.jpg,4490.jpg,1 Points,1 Points,452 Points,PS1_L8.csv,,,,,,,,,,,,,,,,,,,,,,,,,,,,,0,7,7,7,0,15,15,15,,,,,,,,,,,,,,,,,,,1093.0082709170001,q,0.32961208299985856,1093.386623625,,,,,,,02138,A,2024-05-29_23h21.03.857,EPIDM,2022.2.5,None,
4100.jpg,6570.2.jpg,3 Points,3 Points,455 Points,PS1_L8.csv,,,,,,,,,,,,,,,,,,,,,,,,,,,,,0,7,7,7,0,16,16,16,,,,,,,,,,,,,,,,,,,1097.639613792,q,0.7750202499999546,1098.457222583,,,,,,,02138,A,2024-05-29_23h21.03.857,EPIDM,2022.2.5,None,
2650.jpg,4531.jpg,5 Points,5 Points,460 Points,PS1_L8.csv,,,,,,,,,,,,,,,,,,,,,,,,,,,,,0,7,7,7,0,17,17,17,,,,,,,,,,,,,,,,,,,1102.711246708,q,0.24924399899992977,1103.006158375,,,,,,,02138,A,2024-05-29_23h21.03.857,EPIDM,2022.2.5,None,
9320.jpg,9007.jpg,0 Points,0 Points,460 Points,PS1_L8.csv,,,,,,,,,,,,,,,,,,,,,,,,,,,,,0,7,7,7,0,18,18,18,,,,,,,,,,,,,,,,,,,1107.262345333,p,0.2900324990001195,1107.594317125,,,,,,,02138,A,2024-05-29_23h21.03.857,EPIDM,2022.2.5,None,
8460.jpg,8330.jpg,0 Points,0 Points,460 Points,PS1_L8.csv,,,,,,,,,,,,,,,,,,,,,,,,,,,,,0,7,7,7,0,19,19,19,,,,,,,,,,,,,,,,,,,1111.855005583,q,0.11821124999988797,1112.016202417,,,,,,,02138,A,2024-05-29_23h21.03.857,EPIDM,2022.2.5,None,
2570.jpg,5500.jpg,3 Points,3 Points,463 Points,PS1_L8.csv,,,,,,,,,,,,,,,,,,,,,,,,,,,,,0,7,7,7,0,20,20,20,,,,,,,,,,,,,,,,,,,1116.29114875,p,0.2928597079999804,1116.619277458,,,,,,,02138,A,2024-05-29_23h21.03.857,EPIDM,2022.2.5,None,
6190.jpg,3120.jpg,5 Points,5 Points,468 Points,PS1_L8.csv,,,,,,,,,,,,,,,,,,,,,,,,,,,,,0,7,7,7,0,21,21,21,,,,,,,,,,,,,,,,,,,1120.8772034170001,q,0.375633874000016,1121.296886417,,,,,,,02138,A,2024-05-29_23h21.03.857,EPIDM,2022.2.5,None,
2200.jpg,4598.jpg,1 Points,1 Points,469 Points,PS1_L8.csv,,,,,,,,,,,,,,,,,,,,,,,,,,,,,0,7,7,7,0,22,22,22,,,,,,,,,,,,,,,,,,,1125.555026042,p,0.07409895799997912,1125.676970625,,,,,,,02138,A,2024-05-29_23h21.03.857,EPIDM,2022.2.5,None,
1303.jpg,2000.jpg,0 Points,0 Points,469 Points,PS1_L8.csv,,,,,,,,,,,,,,,,,,,,,,,,,,,,,0,7,7,7,0,23,23,23,,,,,,,,,,,,,,,,,,,1129.942459333,q,0.10495358300005364,1130.0906315,,,1140.475341625,space,0.8924850419999188,,02138,A,2024-05-29_23h21.03.857,EPIDM,2022.2.5,None,
9010.jpg,9253.jpg,0 Points,0 Points,469 Points,PS1_L9.csv,,,,,,,,,,,,,,,,,,,,,,,,,,,,,0,8,8,8,0,0,0,0,,,,,,,,,,,,,,,,,,,1144.675843625,p,0.28962787500000786,1145.0068094580001,,,,,,,02138,A,2024-05-29_23h21.03.857,EPIDM,2022.2.5,None,
1302.jpg,2700.jpg,3 Points,3 Points,472 Points,PS1_L9.csv,,,,,,,,,,,,,,,,,,,,,,,,,,,,,0,8,8,8,0,1,1,1,,,,,,,,,,,,,,,,,,,1149.28835,q,0.34902200000016137,1149.67838125,o,0.9666372910001542,,,,,02138,A,2024-05-29_23h21.03.857,EPIDM,2022.2.5,None,
2030.jpg,2495.jpg,0 Points,0 Points,472 Points,PS1_L9.csv,,,,,,,,,,,,,,,,,,,,,,,,,,,,,0,8,8,8,0,2,2,2,,,,,,,,,,,,,,,,,,,1154.95844175,p,0.5799504579998143,1155.579136,,,,,,,02138,A,2024-05-29_23h21.03.857,EPIDM,2022.2.5,None,
2110.jpg,7260.jpg,5 Points,5 Points,477 Points,PS1_L9.csv,,,,,,,,,,,,,,,,,,,,,,,,,,,,,0,8,8,8,0,3,3,3,,,,,,,,,,,,,,,,,,,1159.843807167,q,0.1904317910000941,1160.0786351670001,,,,,,,02138,A,2024-05-29_23h21.03.857,EPIDM,2022.2.5,None,
2053.jpg,9415.jpg,4 Points,4 Points,481 Points,PS1_L9.csv,,,,,,,,,,,,,,,,,,,,,,,,,,,,,0,8,8,8,0,4,4,4,,,,,,,,,,,,,,,,,,,1164.3466740420001,p,0.12187487500006,1164.503639708,,,,,,,02138,A,2024-05-29_23h21.03.857,EPIDM,2022.2.5,None,
6211.jpg,9611.jpg,3 Points,3 Points,484 Points,PS1_L9.csv,,,,,,,,,,,,,,,,,,,,,,,,,,,,,0,8,8,8,0,5,5,5,,,,,,,,,,,,,,,,,,,1168.763100125,q,0.2808077080001681,1169.086163333,,,,,,,02138,A,2024-05-29_23h21.03.857,EPIDM,2022.2.5,None,
8350.jpg,7190.jpg,5 Points,5 Points,489 Points,PS1_L9.csv,,,,,,,,,,,,,,,,,,,,,,,,,,,,,0,8,8,8,0,6,6,6,,,,,,,,,,,,,,,,,,,1173.354583125,p,0.14829266600014535,1173.548734583,,,,,,,02138,A,2024-05-29_23h21.03.857,EPIDM,2022.2.5,None,
9340.jpg,6910.jpg,0 Points,0 Points,489 Points,PS1_L9.csv,,,,,,,,,,,,,,,,,,,,,,,,,,,,,0,8,8,8,0,7,7,7,,,,,,,,,,,,,,,,,,,1177.817682625,q,0.008390875000088727,1177.876974167,,,,,,,02138,A,2024-05-29_23h21.03.857,EPIDM,2022.2.5,None,
4533.jpg,2385.jpg,3 Points,3 Points,492 Points,PS1_L9.csv,,,,,,,,,,,,,,,,,,,,,,,,,,,,,0,8,8,8,0,8,8,8,,,,,,,,,,,,,,,,,,,1182.14551525,p,0.02713245799992592,1182.212900958,,,,,,,02138,A,2024-05-29_23h21.03.857,EPIDM,2022.2.5,None,
5940.jpg,9411.jpg,0 Points,0 Points,492 Points,PS1_L9.csv,,,,,,,,,,,,,,,,,,,,,,,,,,,,,0,8,8,8,0,9,9,9,,,,,,,,,,,,,,,,,,,1186.4682745,q,0.39220070800007534,1186.902509,,,,,,,02138,A,2024-05-29_23h21.03.857,EPIDM,2022.2.5,None,
2220.jpg,2010.jpg,5 Points,5 Points,497 Points,PS1_L9.csv,,,,,,,,,,,,,,,,,,,,,,,,,,,,,0,8,8,8,0,10,10,10,,,,,,,,,,,,,,,,,,,1191.159108625,p,0.1877832499999954,1191.389789542,,,,,,,02138,A,2024-05-29_23h21.03.857,EPIDM,2022.2.5,None,
9500.jpg,6360.jpg,1 Points,1 Points,498 Points,PS1_L9.csv,,,,,,,,,,,,,,,,,,,,,,,,,,,,,0,8,8,8,0,11,11,11,,,,,,,,,,,,,,,,,,,1195.644922958,q,0.03542141600001969,1195.723723042,,,,,,,02138,A,2024-05-29_23h21.03.857,EPIDM,2022.2.5,None,
2092.jpg,2210.jpg,0 Points,0 Points,498 Points,PS1_L9.csv,,,,,,,,,,,,,,,,,,,,,,,,,,,,,0,8,8,8,0,12,12,12,,,,,,,,,,,,,,,,,,,1199.981463083,p,0.3411597919999281,1200.360574125,,,,,,,02138,A,2024-05-29_23h21.03.857,EPIDM,2022.2.5,None,
9530.jpg,9220.jpg,1 Points,1 Points,499 Points,PS1_L9.csv,,,,,,,,,,,,,,,,,,,,,,,,,,,,,0,8,8,8,0,13,13,13,,,,,,,,,,,,,,,,,,,1204.624492792,q,0.078447916000016,1204.754614708,o,0.9004788330001361,,,,,02138,A,2024-05-29_23h21.03.857,EPIDM,2022.2.5,None,
9254.jpg,9290.jpg,2 Points,2 Points,501 Points,PS1_L9.csv,,,,,,,,,,,,,,,,,,,,,,,,,,,,,0,8,8,8,0,14,14,14,,,,,,,,,,,,,,,,,,,1209.970716625,p,0.21504566599998043,1210.229927458,,,,,,,02138,A,2024-05-29_23h21.03.857,EPIDM,2022.2.5,None,
4608.jpg,8320.jpg,5 Points,5 Points,506 Points,PS1_L9.csv,,,,,,,,,,,,,,,,,,,,,,,,,,,,,0,8,8,8,0,15,15,15,,,,,,,,,,,,,,,,,,,1214.503565833,p,0.25689733300015405,1214.803849208,,,,,,,02138,A,2024-05-29_23h21.03.857,EPIDM,2022.2.5,None,
7237.jpg,8510.jpg,4 Points,4 Points,510 Points,PS1_L9.csv,,,,,,,,,,,,,,,,,,,,,,,,,,,,,0,8,8,8,0,16,16,16,,,,,,,,,,,,,,,,,,,1219.073414208,q,2.3423731660000726,1221.450328208,,,,,,,02138,A,2024-05-29_23h21.03.857,EPIDM,2022.2.5,None,
9417.jpg,6530.jpg,1 Points,1 Points,511 Points,PS1_L9.csv,,,,,,,,,,,,,,,,,,,,,,,,,,,,,0,8,8,8,0,17,17,17,,,,,,,,,,,,,,,,,,,1225.7172405420001,q,0.39869166600016115,1226.158874667,,,,,,,02138,A,2024-05-29_23h21.03.857,EPIDM,2022.2.5,None,
6831.jpg,2141.jpg,3 Points,3 Points,514 Points,PS1_L9.csv,,,,,,,,,,,,,,,,,,,,,,,,,,,,,0,8,8,8,0,18,18,18,,,,,,,,,,,,,,,,,,,1230.4252775,p,0.6468492910001373,1231.111920625,,,,,,,02138,A,2024-05-29_23h21.03.857,EPIDM,2022.2.5,None,
4689.jpg,7009.jpg,5 Points,5 Points,519 Points,PS1_L9.csv,,,,,,,,,,,,,,,,,,,,,,,,,,,,,0,8,8,8,0,19,19,19,,,,,,,,,,,,,,,,,,,1235.36473325,q,0.6786370830000692,1236.089109542,,,,,,,02138,A,2024-05-29_23h21.03.857,EPIDM,2022.2.5,None,
2751.jpg,6313.jpg,3 Points,3 Points,522 Points,PS1_L9.csv,,,,,,,,,,,,,,,,,,,,,,,,,,,,,0,8,8,8,0,20,20,20,,,,,,,,,,,,,,,,,,,1240.340222167,p,0.3435374579999575,1240.7225875000001,,,,,,,02138,A,2024-05-29_23h21.03.857,EPIDM,2022.2.5,None,
4621.jpg,3550.jpg,2 Points,2 Points,524 Points,PS1_L9.csv,,,,,,,,,,,,,,,,,,,,,,,,,,,,,0,8,8,8,0,21,21,21,,,,,,,,,,,,,,,,,,,1244.990621375,q,0.45071654100007663,1245.478290292,,,,,,,02138,A,2024-05-29_23h21.03.857,EPIDM,2022.2.5,None,
8220.jpg,2410.jpg,4 Points,4 Points,528 Points,PS1_L9.csv,,,,,,,,,,,,,,,,,,,,,,,,,,,,,0,8,8,8,0,22,22,22,,,,,,,,,,,,,,,,,,,1249.757899125,p,1.0287782500000162,1250.828226708,,,,,,,02138,A,2024-05-29_23h21.03.857,EPIDM,2022.2.5,None,
1113.jpg,1240.jpg,3 Points,3 Points,531 Points,PS1_L9.csv,,,,,,,,,,,,,,,,,,,,,,,,,,,,,0,8,8,8,0,23,23,23,,,,,,,,,,,,,,,,,,,1255.0918382500001,q,0.4137014580001619,1255.548191292,,,1265.921100833,space,3.5106204580000053,,02138,A,2024-05-29_23h21.03.857,EPIDM,2022.2.5,None,
2750.jpg,9050.jpg,4 Points,4 Points,535 Points,PS1_L10.csv,,,,,,,,,,,,,,,,,,,,,,,,,,,,,0,9,9,9,0,0,0,0,,,,,,,,,,,,,,,,,,,1272.736978333,p,0.2702187909999907,1273.054208292,,,,,,,02138,A,2024-05-29_23h21.03.857,EPIDM,2022.2.5,None,
2312.jpg,2722.jpg,1 Points,1 Points,536 Points,PS1_L10.csv,,,,,,,,,,,,,,,,,,,,,,,,,,,,,0,9,9,9,0,1,1,1,,,,,,,,,,,,,,,,,,,1277.3175625420001,q,0.359021499999983,1277.730744208,o,1.8673608330000775,,,,,02138,A,2024-05-29_23h21.03.857,EPIDM,2022.2.5,None,
8232.jpg,4279.jpg,5 Points,5 Points,541 Points,PS1_L10.csv,,,,,,,,,,,,,,,,,,,,,,,,,,,,,0,9,9,9,0,2,2,2,,,,,,,,,,,,,,,,,,,1283.894831083,p,0.8662328329999696,1284.809021667,,,,,,,02138,A,2024-05-29_23h21.03.857,EPIDM,2022.2.5,None,
6000.jpg,6836.jpg,4 Points,4 Points,545 Points,PS1_L10.csv,,,,,,,,,,,,,,,,,,,,,,,,,,,,,0,9,9,9,0,3,3,3,,,,,,,,,,,,,,,,,,,1289.055415625,q,1.4998861249999322,1290.6059044170001,,,,,,,02138,A,2024-05-29_23h21.03.857,EPIDM,2022.2.5,None,
4536.jpg,2280.jpg,4 Points,4 Points,549 Points,PS1_L10.csv,,,,,,,,,,,,,,,,,,,,,,,,,,,,,0,9,9,9,0,4,4,4,,,,,,,,,,,,,,,,,,,1294.85770275,p,0.891861707999908,1295.795309208,,,,,,,02138,A,2024-05-29_23h21.03.857,EPIDM,2022.2.5,None,
6241.jpg,9561.jpg,3 Points,3 Points,552 Points,PS1_L10.csv,,,,,,,,,,,,,,,,,,,,,,,,,,,,,0,9,9,9,0,5,5,5,,,,,,,,,,,,,,,,,,,1300.05061025,q,0.5691051240001457,1300.676786792,,,,,,,02138,A,2024-05-29_23h21.03.857,EPIDM,2022.2.5,None,
1942.jpg,2890.jpg,1 Points,1 Points,553 Points,PS1_L10.csv,,,,,,,,,,,,,,,,,,,,,,,,,,,,,0,9,9,9,0,6,6,6,,,,,,,,,,,,,,,,,,,1304.9503683330001,p,0.4526679579999495,1305.459479,,,,,,,02138,A,2024-05-29_23h21.03.857,EPIDM,2022.2.5,None,
6020.jpg,6300.jpg,2 Points,2 Points,555 Points,PS1_L10.csv,,,,,,,,,,,,,,,,,,,,,,,,,,,,,0,9,9,9,0,7,7,7,,,,,,,,,,,,,,,,,,,1309.7338245830001,q,0.3771549999999593,1310.147209917,,,,,,,02138,A,2024-05-29_23h21.03.857,EPIDM,2022.2.5,None,
4810.jpg,2170.jpg,2 Points,2 Points,557 Points,PS1_L10.csv,,,,,,,,,,,,,,,,,,,,,,,,,,,,,0,9,9,9,0,8,8,8,,,,,,,,,,,,,,,,,,,1314.416765792,p,1.0135584160000803,1315.469521583,,,,,,,02138,A,2024-05-29_23h21.03.857,EPIDM,2022.2.5,None,
5510.jpg,2514.jpg,5 Points,5 Points,562 Points,PS1_L10.csv,,,,,,,,,,,,,,,,,,,,,,,,,,,,,0,9,9,9,0,9,9,9,,,,,,,,,,,,,,,,,,,1319.736719958,q,0.34901008299999603,1320.1338660420001,,,,,,,02138,A,2024-05-29_23h21.03.857,EPIDM,2022.2.5,None,
6840.jpg,3080.jpg,1 Points,1 Points,563 Points,PS1_L10.csv,,,,,,,,,,,,,,,,,,,,,,,,,,,,,0,9,9,9,0,10,10,10,,,,,,,,,,,,,,,,,,,1324.388960167,p,0.7141644579999706,1325.138222583,,,,,,,02138,A,2024-05-29_23h21.03.857,EPIDM,2022.2.5,None,
7195.jpg,2487.jpg,2 Points,2 Points,565 Points,PS1_L10.csv,,,,,,,,,,,,,,,,,,,,,,,,,,,,,0,9,9,9,0,11,11,11,,,,,,,,,,,,,,,,,,,1329.417594167,q,0.1220663739998713,1329.595365292,,,,,,,02138,A,2024-05-29_23h21.03.857,EPIDM,2022.2.5,None,
5971.jpg,9912.jpg,5 Points,5 Points,570 Points,PS1_L10.csv,,,,,,,,,,,,,,,,,,,,,,,,,,,,,0,9,9,9,0,12,12,12,,,,,,,,,,,,,,,,,,,1333.8416360420001,p,0.4640529169999468,1334.3470407920001,,,,,,,02138,A,2024-05-29_23h21.03.857,EPIDM,2022.2.5,None,
2520.jpg,4653.jpg,2 Points,2 Points,572 Points,PS1_L10.csv,,,,,,,,,,,,,,,,,,,,,,,,,,,,,0,9,9,9,0,13,13,13,,,,,,,,,,,,,,,,,,,1338.607143208,q,1.4107554579998691,1340.0613303330001,o,2.0875472910000212,,,,,02138,A,2024-05-29_23h21.03.857,EPIDM,2022.2.5,None,
5480.jpg,8200.jpg,4 Points,4 Points,576 Points,PS1_L10.csv,,,,,,,,,,,,,,,,,,,,,,,,,,,,,0,9,9,9,0,14,14,14,,,,,,,,,,,,,,,,,,,1346.459118625,p,1.159882165999818,1347.672382708,,,,,,,02138,A,2024-05-29_23h21.03.857,EPIDM,2022.2.5,None,
6370.jpg,1270.jpg,4 Points,4 Points,580 Points,PS1_L10.csv,,,,,,,,,,,,,,,,,,,,,,,,,,,,,0,9,9,9,0,15,15,15,,,,,,,,,,,,,,,,,,,1351.920007417,q,0.3282025409999392,1352.29538475,,,,,,,02138,A,2024-05-29_23h21.03.857,EPIDM,2022.2.5,None,
4310.jpg,1810.jpg,3 Points,3 Points,583 Points,PS1_L10.csv,,,,,,,,,,,,,,,,,,,,,,,,,,,,,0,9,9,9,0,16,16,16,,,,,,,,,,,,,,,,,,,1356.550249833,p,0.35069187499999543,1356.953932792,,,,,,,02138,A,2024-05-29_23h21.03.857,EPIDM,2022.2.5,None,
4250.jpg,7060.jpg,5 Points,5 Points,588 Points,PS1_L10.csv,,,,,,,,,,,,,,,,,,,,,,,,,,,,,0,9,9,9,0,17,17,17,,,,,,,,,,,,,,,,,,,1361.22529775,q,0.2506083330000024,1361.53188475,,,,,,,02138,A,2024-05-29_23h21.03.857,EPIDM,2022.2.5,None,
9373.jpg,9410.jpg,0 Points,0 Points,588 Points,PS1_L10.csv,,,,,,,,,,,,,,,,,,,,,,,,,,,,,0,9,9,9,0,18,18,18,,,,,,,,,,,,,,,,,,,1365.8002835,p,0.292165333000014,1366.13999625,,,,,,,02138,A,2024-05-29_23h21.03.857,EPIDM,2022.2.5,None,
2221.jpg,2270.jpg,2 Points,2 Points,590 Points,PS1_L10.csv,,,,,,,,,,,,,,,,,,,,,,,,,,,,,0,9,9,9,0,19,19,19,,,,,,,,,,,,,,,,,,,1370.400072333,q,0.3154961660000595,1370.751988167,,,,,,,02138,A,2024-05-29_23h21.03.857,EPIDM,2022.2.5,None,
1650.jpg,2130.jpg,1 Points,1 Points,591 Points,PS1_L10.csv,,,,,,,,,,,,,,,,,,,,,,,,,,,,,0,9,9,9,0,20,20,20,,,,,,,,,,,,,,,,,,,1375.024427792,p,2.251806042000055,1377.323586542,,,,,,,02138,A,2024-05-29_23h21.03.857,EPIDM,2022.2.5,None,
1280.jpg,9402.jpg,2 Points,2 Points,593 Points,PS1_L10.csv,,,,,,,,,,,,,,,,,,,,,,,,,,,,,0,9,9,9,0,21,21,21,,,,,,,,,,,,,,,,,,,1381.5746342920002,q,0.33999270800001113,1381.94939625,,,,,,,02138,A,2024-05-29_23h21.03.857,EPIDM,2022.2.5,None,
2214.jpg,4500.jpg,3 Points,3 Points,596 Points,PS1_L10.csv,,,,,,,,,,,,,,,,,,,,,,,,,,,,,0,9,9,9,0,22,22,22,,,,,,,,,,,,,,,,,,,1386.206580375,p,0.653956083000196,1386.9117752920001,,,,,,,02138,A,2024-05-29_23h21.03.857,EPIDM,2022.2.5,None,
4232.jpg,4002.jpg,4 Points,4 Points,600 Points,PS1_L10.csv,,,,,,,,,,,,,,,,,,,,,,,,,,,,,0,9,9,9,0,23,23,23,,,,,,,,,,,,,,,,,,,1391.1565815000001,q,1.3365246660001162,1392.545340833,,,1402.914982833,space,2.1248813739999264,,02138,A,2024-05-29_23h21.03.857,EPIDM,2022.2.5,None,
